Measurement Count,IMU_MODE,Accel_X,Accel_Y,Accel_Z,Gyro_X,Gyro_Y,Gyro_Z,X_DEL_ANG,Y_DEL_ANG,Z_DEL_ANG,ROLL,PITCH,HEADING
1,0,0.32200000,0.01700000,0.94400000,0.21000000,0.02000000,-0.22000000,0.06375223,0.00607164,-0.06678805,1.01000000,-18.67000000,0.00000000
2,0,0.31900000,0.01100000,0.94800000,-0.23000000,0.17000000,0.07000000,0.06351131,0.00624971,-0.06671473,0.60000000,-18.79000000,0.14000000
3,0,0.32200000,0.01100000,0.94600000,0.22000000,-0.04000000,0.03000000,0.06373116,0.00620974,-0.06668475,0.70000000,-18.78000000,0.10000000
4,0,0.32300000,0.00800000,0.95000000,0.03000000,-0.07000000,-0.00000000,0.06376096,0.00614022,-0.06668475,0.70000000,-18.78000000,0.11000000
5,0,0.32000000,0.00900000,0.94700000,-0.20000000,0.15000000,0.28000000,0.06356124,0.00629001,-0.06640514,0.69000000,-18.80000000,0.11000000
6,0,0.32100000,0.00900000,0.94400000,0.62000000,-0.17000000,-0.12000000,0.06417726,0.00612110,-0.06652437,0.71000000,-18.78000000,0.10000000
7,0,0.31900000,0.01300000,0.95100000,-0.27000000,-0.18000000,0.07000000,0.06375295,0.00583823,-0.06641437,0.71000000,-18.76000000,0.10000000
8,0,0.32200000,0.01000000,0.94200000,0.02000000,0.20000000,-0.11000000,0.06379650,0.00627374,-0.06665390,0.67000000,-18.77000000,0.12000000
9,0,0.32200000,0.00600000,0.94700000,0.19000000,0.20000000,-0.12000000,0.06401197,0.00650055,-0.06678998,0.63000000,-18.76000000,0.13000000
10,0,0.32400000,0.00800000,0.94700000,0.04000000,-0.30000000,0.05000000,0.06405705,0.00616241,-0.06673363,0.62000000,-18.76000000,0.13000000
11,0,0.32200000,0.00900000,0.94700000,-0.14000000,-0.29000000,-0.01000000,0.06391865,0.00587572,-0.06674351,0.61000000,-18.76000000,0.13000000
12,0,0.31700000,0.01400000,0.94200000,0.40000000,-0.12000000,0.07000000,0.06432496,0.00575383,-0.06667241,0.59000000,-18.78000000,0.14000000
13,0,0.32300000,0.01300000,0.94700000,-0.06000000,-0.10000000,0.02000000,0.06425676,0.00564017,-0.06664968,0.61000000,-18.78000000,0.13000000
14,0,0.32500000,0.01500000,0.94700000,0.08000000,0.05000000,-0.05000000,0.06434161,0.00569320,-0.06670271,0.63000000,-18.78000000,0.13000000
15,0,0.31800000,0.00800000,0.94800000,-0.38000000,-0.09000000,-0.04000000,0.06392182,0.00559378,-0.06674689,0.62000000,-18.76000000,0.13000000
16,0,0.32200000,0.01600000,0.94600000,0.15000000,0.04000000,0.16000000,0.06409718,0.00564054,-0.06655984,0.65000000,-18.76000000,0.12000000
17,0,0.32500000,0.01000000,0.95400000,-0.14000000,0.32000000,0.09000000,0.06392710,0.00602929,-0.06645051,0.65000000,-18.76000000,0.12000000
18,0,0.31800000,0.01400000,0.94600000,0.17000000,0.21000000,-0.22000000,0.06411113,0.00625662,-0.06668866,0.66000000,-18.75000000,0.12000000
19,0,0.32600000,0.00700000,0.95200000,-0.06000000,-0.17000000,-0.15000000,0.06403685,0.00604616,-0.06687436,0.66000000,-18.76000000,0.12000000
20,0,0.32000000,0.01300000,0.94400000,-0.08000000,-0.22000000,0.26000000,0.06394432,0.00579170,-0.06657362,0.67000000,-18.76000000,0.12000000
21,0,0.32500000,0.01000000,0.94700000,0.41000000,-0.17000000,-0.11000000,0.06438796,0.00560775,-0.06669265,0.66000000,-18.77000000,0.12000000
22,0,0.32000000,0.00600000,0.94600000,-0.40000000,-0.11000000,0.32000000,0.06397450,0.00549405,-0.06636188,0.66000000,-18.77000000,0.12000000
23,0,0.32700000,0.00500000,0.94700000,0.43000000,-0.01000000,0.21000000,0.06445423,0.00548289,-0.06612759,0.66000000,-18.78000000,0.12000000
24,0,0.32400000,0.00900000,0.94500000,0.16000000,0.02000000,0.19000000,0.06462164,0.00550382,-0.06592880,0.66000000,-18.79000000,0.12000000
25,0,0.32000000,0.01600000,0.94800000,-0.08000000,-0.14000000,0.01000000,0.06453233,0.00534752,-0.06591763,0.65000000,-18.78000000,0.12000000
26,0,0.32500000,0.01800000,0.94700000,0.08000000,-0.07000000,0.03000000,0.06462097,0.00526996,-0.06588439,0.67000000,-18.78000000,0.12000000
27,0,0.32200000,0.01200000,0.94400000,0.04000000,0.03000000,-0.17000000,0.06466708,0.00530454,-0.06608034,0.67000000,-18.78000000,0.12000000
28,0,0.31500000,0.00800000,0.94700000,-0.12000000,0.01000000,-0.01000000,0.06450402,0.00531813,-0.06609393,0.66000000,-18.78000000,0.12000000
29,0,0.32400000,0.01100000,0.94600000,-0.10000000,0.10000000,-0.26000000,0.06293824,0.00688390,-0.07016495,0.66000000,-18.78000000,0.12000000
30,0,0.32400000,0.00900000,0.94700000,0.07000000,0.01000000,-0.11000000,0.06303433,0.00689763,-0.07031594,0.65000000,-18.79000000,0.12000000
31,0,0.31700000,0.01000000,0.94400000,0.06000000,0.02000000,0.15000000,0.06310245,0.00692034,-0.07014562,0.65000000,-18.79000000,0.12000000
32,0,0.32400000,0.01500000,0.94600000,0.13000000,-0.07000000,-0.01000000,0.06323599,0.00684844,-0.07015589,0.66000000,-18.79000000,0.12000000
33,0,0.32500000,0.01200000,0.94400000,-0.12000000,0.02000000,0.06000000,0.06311141,0.00686920,-0.07009360,0.66000000,-18.79000000,0.12000000
34,0,0.32400000,0.00800000,0.94700000,-0.01000000,-0.22000000,0.04000000,0.06309075,0.00641473,-0.07001097,0.66000000,-18.80000000,0.12000000
35,0,0.32300000,0.00700000,0.94400000,-0.08000000,0.03000000,0.17000000,0.05885996,0.00800128,-0.06102054,0.66000000,-18.79000000,0.12000000
36,0,0.32400000,0.01200000,0.94800000,-0.02000000,-0.05000000,0.07000000,0.05883752,0.00794517,-0.06094199,0.65000000,-18.79000000,0.12000000
37,0,0.32300000,0.01200000,0.94800000,-0.01000000,-0.09000000,-0.02000000,0.05882716,0.00785197,-0.06096270,0.65000000,-18.79000000,0.12000000
38,0,0.32000000,0.01500000,0.94100000,-0.10000000,0.06000000,-0.13000000,0.05872623,0.00791253,-0.06109391,0.66000000,-18.79000000,0.12000000
39,0,0.32200000,0.01100000,0.94500000,-0.10000000,-0.06000000,0.30000000,0.05862262,0.00785037,-0.06078310,0.66000000,-18.79000000,0.12000000
40,0,0.31900000,0.00900000,0.94900000,-0.04000000,0.05000000,-0.08000000,0.05858218,0.00790092,-0.06086398,0.65000000,-18.79000000,0.12000000
41,0,0.32300000,0.00700000,0.94600000,-0.15000000,0.22000000,-0.05000000,0.05026196,0.02010392,-0.06363739,0.65000000,-18.79000000,0.12000000
42,0,0.32300000,0.00600000,0.94500000,0.37000000,-0.01000000,-0.03000000,0.05064608,0.02009354,-0.06366854,0.65000000,-18.79000000,0.12000000
43,0,0.32400000,0.01000000,0.94500000,-0.24000000,-0.03000000,0.13000000,0.05039824,0.02006256,-0.06353429,0.65000000,-18.79000000,0.12000000
44,0,0.31800000,0.01000000,0.94800000,0.16000000,0.01000000,0.02000000,0.05058391,0.02007416,-0.06351108,0.65000000,-18.79000000,0.12000000
45,0,0.32600000,0.01000000,0.94700000,0.13000000,0.08000000,-0.01000000,0.05072563,0.02016138,-0.06352198,0.65000000,-18.79000000,0.12000000
46,0,0.32300000,0.01100000,0.94400000,-0.00000000,-0.04000000,-0.05000000,0.05072563,0.02011814,-0.06357602,0.64000000,-18.80000000,0.13000000
47,0,0.32600000,0.00800000,0.95000000,-0.20000000,0.03000000,-0.01000000,0.03953868,0.02179619,-0.06413537,0.64000000,-18.80000000,0.13000000
48,0,0.31800000,0.01400000,0.94600000,0.04000000,-0.04000000,0.02000000,0.03958141,0.02175346,-0.06411401,0.64000000,-18.79000000,0.13000000
49,0,0.32400000,0.01100000,0.95000000,0.17000000,0.13000000,-0.00000000,0.03975178,0.02188374,-0.06411401,0.64000000,-18.79000000,0.13000000
50,0,0.32200000,0.00600000,0.94800000,0.09000000,-0.14000000,-0.06000000,0.03984135,0.02174440,-0.06417372,0.64000000,-18.79000000,0.13000000
51,0,0.32100000,0.01200000,0.94400000,0.19000000,0.08000000,0.24000000,0.04003054,0.02182406,-0.06393475,0.63000000,-18.79000000,0.13000000
52,0,0.31800000,0.01000000,0.95300000,0.22000000,-0.14000000,-0.29000000,0.04025128,0.02168359,-0.06422572,0.63000000,-18.79000000,0.13000000
53,0,0.32300000,0.00900000,0.95000000,0.10000000,-0.22000000,-0.12000000,0.04581074,0.00945279,-0.07089707,0.63000000,-18.79000000,0.13000000
54,0,0.32400000,0.01000000,0.94700000,0.12000000,0.07000000,0.29000000,0.04595503,0.00953696,-0.07054836,0.63000000,-18.78000000,0.13000000
55,0,0.32500000,0.01100000,0.94200000,-0.07000000,-0.10000000,-0.17000000,0.04588353,0.00943481,-0.07072201,0.63000000,-18.78000000,0.13000000
56,0,0.32200000,0.01000000,0.94300000,0.03000000,0.20000000,0.09000000,0.04591356,0.00963501,-0.07063192,0.63000000,-18.78000000,0.13000000
57,0,0.31700000,0.00600000,0.94900000,0.37000000,-0.06000000,-0.07000000,0.04628269,0.00957515,-0.07070176,0.62000000,-18.78000000,0.13000000
58,0,0.32200000,0.00400000,0.95000000,-0.11000000,-0.03000000,-0.10000000,0.04617187,0.00954493,-0.07080250,0.62000000,-18.78000000,0.13000000
59,0,0.32400000,0.01500000,0.94400000,0.10000000,-0.07000000,-0.24000000,0.05171461,0.00566501,-0.08410508,0.62000000,-18.78000000,0.13000000
60,0,0.32100000,0.00400000,0.94800000,-0.08000000,-0.06000000,0.20000000,0.05163037,0.00560183,-0.08389449,0.63000000,-18.78000000,0.13000000
61,0,0.31900000,0.00200000,0.94800000,-0.02000000,-0.26000000,-0.08000000,0.05161009,0.00533810,-0.08397563,0.63000000,-18.78000000,0.13000000
62,0,0.32800000,0.00600000,0.94500000,0.00000000,-0.18000000,0.15000000,0.05161009,0.00515694,-0.08382466,0.62000000,-18.78000000,0.13000000
63,0,0.32400000,0.00900000,0.94500000,0.19000000,-0.27000000,-0.04000000,0.05179769,0.00489034,-0.08386416,0.62000000,-18.78000000,0.13000000
64,0,0.32800000,0.01100000,0.95100000,-0.17000000,-0.01000000,-0.40000000,0.05161492,0.00487959,-0.08429421,0.62000000,-18.78000000,0.13000000
65,0,0.32300000,0.01000000,0.94600000,0.09000000,0.13000000,-0.08000000,0.05668235,0.01219922,-0.08879860,0.62000000,-18.78000000,0.13000000
66,0,0.32300000,0.00700000,0.94500000,0.19000000,-0.00000000,0.25000000,0.05689917,0.01219922,-0.08851330,0.62000000,-18.78000000,0.13000000
67,0,0.32500000,0.01500000,0.94800000,-0.30000000,-0.11000000,-0.13000000,0.05657807,0.01208148,-0.08865245,0.62000000,-18.78000000,0.13000000
68,0,0.32200000,0.01000000,0.94900000,-0.09000000,-0.08000000,0.43000000,0.05648602,0.01199966,-0.08821270,0.62000000,-18.78000000,0.13000000
69,0,0.32000000,0.01400000,0.94800000,0.34000000,-0.08000000,0.10000000,0.05684435,0.01191535,-0.08810731,0.61000000,-18.78000000,0.13000000
70,0,0.32100000,0.00700000,0.94900000,-0.33000000,-0.04000000,0.00000000,0.05650734,0.01187450,-0.08810731,0.61000000,-18.78000000,0.13000000
71,0,0.32500000,0.00900000,0.94600000,0.35000000,-0.22000000,-0.18000000,0.07585403,-0.00028628,-0.09805703,0.62000000,-18.78000000,0.13000000
72,0,0.32000000,0.01300000,0.94700000,0.02000000,-0.08000000,0.12000000,0.07588083,-0.00039346,-0.09789626,0.62000000,-18.78000000,0.13000000
73,0,0.32200000,0.01600000,0.94600000,0.08000000,-0.18000000,-0.12000000,0.07598027,-0.00061720,-0.09804542,0.62000000,-18.78000000,0.13000000
74,0,0.32000000,0.01000000,0.94900000,-0.04000000,0.02000000,-0.13000000,0.07592852,-0.00059132,-0.09821361,0.62000000,-18.78000000,0.13000000
75,0,0.32100000,0.00800000,0.94800000,-0.25000000,-0.09000000,0.20000000,0.07562838,-0.00069937,-0.09797350,0.62000000,-18.79000000,0.13000000
76,0,0.32100000,0.00800000,0.94800000,0.22000000,0.08000000,-0.11000000,0.07595969,-0.00057889,-0.09813915,0.62000000,-18.78000000,0.13000000
77,0,0.32100000,0.01300000,0.94700000,-0.20000000,-0.10000000,0.03000000,0.06496862,-0.00607443,-0.09649049,0.62000000,-18.78000000,0.13000000
78,0,0.32200000,0.01300000,0.95400000,0.03000000,-0.10000000,-0.03000000,0.06500565,-0.00619787,-0.09652752,0.62000000,-18.78000000,0.13000000
79,0,0.32100000,0.00800000,0.94800000,-0.07000000,0.30000000,0.00000000,0.06493034,-0.00587511,-0.09652752,0.62000000,-18.78000000,0.13000000
80,0,0.32100000,0.01000000,0.94600000,0.07000000,-0.05000000,0.11000000,0.06500323,-0.00592718,-0.09641298,0.63000000,-18.78000000,0.13000000
81,0,0.32300000,0.01000000,0.94900000,-0.01000000,-0.11000000,-0.34000000,0.06499312,-0.00603841,-0.09675680,0.62000000,-18.78000000,0.13000000
82,0,0.32600000,0.00800000,0.94700000,0.16000000,0.03000000,0.25000000,0.06515305,-0.00600843,-0.09650692,0.62000000,-18.78000000,0.13000000
83,0,0.31900000,0.01600000,0.94600000,-0.13000000,0.10000000,0.06000000,0.05798400,-0.00049377,-0.09319812,0.62000000,-18.78000000,0.13000000
84,0,0.31800000,0.01200000,0.94700000,0.08000000,0.14000000,-0.11000000,0.05806841,-0.00034606,-0.09331418,0.62000000,-18.77000000,0.13000000
85,0,0.32100000,0.01000000,0.94600000,-0.27000000,0.02000000,0.02000000,0.05779801,-0.00032603,-0.09329416,0.62000000,-18.77000000,0.12000000
86,0,0.32800000,0.00700000,0.94800000,-0.06000000,-0.11000000,-0.24000000,0.05773749,-0.00043697,-0.09353622,0.62000000,-18.77000000,0.12000000
87,0,0.32000000,0.00800000,0.94300000,0.22000000,-0.13000000,0.03000000,0.05795682,-0.00056658,-0.09350631,0.62000000,-18.77000000,0.12000000
88,0,0.32300000,0.00900000,0.94700000,-0.04000000,0.07000000,0.19000000,0.05791691,-0.00049674,-0.09331676,0.62000000,-18.78000000,0.13000000
89,0,0.32300000,0.01100000,0.94800000,0.19000000,0.04000000,0.14000000,0.06845306,0.00172140,-0.08555329,0.62000000,-18.78000000,0.13000000
90,0,0.32400000,0.00800000,0.94700000,0.17000000,-0.14000000,-0.19000000,0.06862882,0.00157665,-0.08574972,0.62000000,-18.78000000,0.12000000
91,0,0.32000000,0.01100000,0.94900000,0.13000000,-0.19000000,-0.01000000,0.06875709,0.00138918,-0.08575959,0.62000000,-18.78000000,0.12000000
92,0,0.32500000,0.01100000,0.94600000,0.12000000,-0.07000000,0.19000000,0.06887758,0.00131890,-0.08556881,0.62000000,-18.78000000,0.13000000
93,0,0.32100000,0.01300000,0.94200000,-0.10000000,-0.20000000,0.10000000,0.06877069,0.00110511,-0.08546192,0.62000000,-18.77000000,0.13000000
94,0,0.31900000,0.01000000,0.94600000,-0.07000000,0.07000000,-0.07000000,0.06870020,0.00117560,-0.08553241,0.63000000,-18.77000000,0.13000000
95,0,0.32300000,0.00600000,0.94100000,-0.18000000,-0.16000000,0.16000000,0.05853461,-0.00786048,-0.07649633,0.63000000,-18.78000000,0.13000000
96,0,0.32400000,0.00800000,0.94400000,0.00000000,-0.27000000,-0.09000000,0.05853461,-0.00814530,-0.07659126,0.62000000,-18.78000000,0.13000000
97,0,0.32700000,0.01000000,0.94600000,-0.08000000,-0.23000000,0.17000000,0.05845361,-0.00837816,-0.07641915,0.62000000,-18.78000000,0.13000000
98,0,0.32400000,0.00800000,0.95000000,-0.07000000,-0.05000000,0.26000000,0.05838383,-0.00842800,-0.07615995,0.62000000,-18.78000000,0.13000000
99,0,0.32400000,0.00700000,0.94600000,0.01000000,0.08000000,-0.08000000,0.05839376,-0.00834859,-0.07623936,0.62000000,-18.78000000,0.13000000
100,0,0.32400000,0.01000000,0.95000000,0.04000000,0.06000000,-0.03000000,0.05843357,-0.00828888,-0.07626922,0.62000000,-18.78000000,0.13000000
101,0,0.32100000,0.01000000,0.94400000,0.09000000,0.06000000,-0.04000000,0.06343435,-0.00495502,-0.07849179,0.62000000,-18.78000000,0.13000000
102,0,0.32000000,0.00800000,0.94700000,0.00000000,-0.13000000,0.14000000,0.06343435,-0.00509755,-0.07833830,0.62000000,-18.78000000,0.13000000
103,0,0.31800000,0.01200000,0.94800000,-0.10000000,0.14000000,0.03000000,0.06333354,-0.00495641,-0.07830806,0.62000000,-18.77000000,0.13000000
104,0,0.32500000,0.01100000,0.94900000,0.11000000,-0.04000000,0.17000000,0.06344270,-0.00499610,-0.07813935,0.62000000,-18.77000000,0.13000000
105,0,0.32600000,0.00800000,0.94400000,-0.13000000,0.09000000,0.36000000,0.06331378,-0.00490685,-0.07778234,0.62000000,-18.78000000,0.13000000
106,0,0.32400000,0.00600000,0.94800000,-0.09000000,-0.04000000,0.00000000,0.06322427,-0.00494663,-0.07778234,0.62000000,-18.78000000,0.13000000
107,0,0.32400000,0.01200000,0.94600000,0.16000000,-0.18000000,0.18000000,0.07209876,-0.01493043,-0.06779854,0.62000000,-18.78000000,0.13000000
108,0,0.31900000,0.00900000,0.94900000,0.04000000,0.07000000,0.17000000,0.07214088,-0.01485673,-0.06761954,0.62000000,-18.78000000,0.13000000
109,0,0.32600000,0.01000000,0.94700000,0.08000000,-0.26000000,0.16000000,0.07222207,-0.01512058,-0.06745717,0.62000000,-18.78000000,0.13000000
110,0,0.32100000,0.01100000,0.94600000,-0.06000000,0.14000000,-0.26000000,0.07216218,-0.01498084,-0.06771668,0.62000000,-18.78000000,0.13000000
111,0,0.31900000,0.00800000,0.94800000,0.09000000,0.15000000,-0.25000000,0.07225171,-0.01483162,-0.06796538,0.62000000,-18.78000000,0.13000000
112,0,0.32200000,0.01200000,0.94400000,-0.06000000,0.08000000,0.00000000,0.07219176,-0.01475170,-0.06796538,0.62000000,-18.78000000,0.13000000
113,0,0.32200000,0.01200000,0.94900000,0.18000000,-0.08000000,-0.11000000,0.08235860,-0.01927029,-0.07417844,0.62000000,-18.78000000,0.13000000
114,0,0.32300000,0.01100000,0.94700000,-0.01000000,0.23000000,0.01000000,0.08234740,-0.01901276,-0.07416724,0.62000000,-18.78000000,0.13000000
115,0,0.32500000,0.01500000,0.94700000,0.03000000,-0.32000000,0.10000000,0.08237938,-0.01935390,-0.07406064,0.62000000,-18.78000000,0.13000000
116,0,0.31700000,0.00900000,0.94600000,0.12000000,-0.04000000,0.03000000,0.08250766,-0.01939666,-0.07402857,0.62000000,-18.78000000,0.13000000
117,0,0.32500000,0.00800000,0.95200000,-0.05000000,0.03000000,0.04000000,0.08244952,-0.01936178,-0.07398206,0.62000000,-18.78000000,0.13000000
118,0,0.32200000,0.00800000,0.94800000,-0.02000000,0.18000000,-0.33000000,0.08242757,-0.01916418,-0.07434433,0.61000000,-18.78000000,0.13000000
119,0,0.32900000,0.01400000,0.94900000,-0.30000000,0.07000000,0.44000000,0.08210124,-0.01908803,-0.07386571,0.61000000,-18.78000000,0.13000000
120,0,0.31600000,0.01200000,0.94100000,0.15000000,-0.07000000,-0.09000000,0.09078231,-0.02313920,-0.07907436,0.61000000,-18.78000000,0.13000000
121,0,0.32300000,0.01000000,0.95100000,-0.06000000,0.01000000,0.15000000,0.09071952,-0.02312874,-0.07891738,0.61000000,-18.78000000,0.13000000
122,0,0.32200000,0.00700000,0.94600000,0.05000000,0.15000000,-0.11000000,0.09077017,-0.02297680,-0.07902880,0.61000000,-18.78000000,0.13000000
123,0,0.32200000,0.01100000,0.95000000,0.22000000,0.02000000,0.06000000,0.09098923,-0.02295688,-0.07896906,0.61000000,-18.78000000,0.13000000
124,0,0.32400000,0.00600000,0.94600000,0.23000000,0.10000000,-0.05000000,0.09121759,-0.02285760,-0.07901870,0.61000000,-18.78000000,0.13000000
125,0,0.32300000,0.01000000,0.94600000,0.04000000,-0.03000000,0.12000000,0.09125732,-0.02288739,-0.07889953,0.61000000,-18.78000000,0.13000000
126,0,0.31600000,0.01300000,0.94900000,0.12000000,-0.13000000,0.06000000,0.09795699,-0.03014537,-0.07554969,0.61000000,-18.78000000,0.13000000
127,0,0.31600000,0.01500000,0.94600000,0.31000000,-0.30000000,-0.08000000,0.09838030,-0.03055502,-0.07565893,0.61000000,-18.78000000,0.13000000
128,0,0.32100000,0.01100000,0.94600000,-0.20000000,-0.10000000,-0.00000000,0.09811883,-0.03068576,-0.07565893,0.61000000,-18.78000000,0.13000000
129,0,0.32600000,0.01200000,0.94500000,-0.13000000,0.36000000,-0.07000000,0.09795033,-0.03021915,-0.07574966,0.61000000,-18.78000000,0.13000000
130,0,0.32300000,0.00900000,0.94900000,0.19000000,-0.00000000,-0.03000000,0.09821078,-0.03021915,-0.07579079,0.61000000,-18.78000000,0.13000000
131,0,0.32200000,0.00600000,0.94400000,0.10000000,0.02000000,0.04000000,0.09836120,-0.03018906,-0.07573061,0.61000000,-18.78000000,0.13000000
132,0,0.32100000,0.00800000,0.94700000,0.01000000,-0.16000000,0.03000000,0.09890829,-0.03894236,-0.07408937,0.61000000,-18.78000000,0.13000000
133,0,0.32000000,0.01300000,0.94600000,0.02000000,0.13000000,-0.24000000,0.09893520,-0.03876744,-0.07441229,0.61000000,-18.78000000,0.13000000
134,0,0.32300000,0.01000000,0.94300000,-0.00000000,-0.04000000,-0.06000000,0.09893520,-0.03881875,-0.07448924,0.61000000,-18.78000000,0.13000000
135,0,0.32100000,0.01100000,0.94700000,-0.65000000,-0.03000000,0.31000000,0.09809379,-0.03885758,-0.07408796,0.61000000,-18.78000000,0.13000000
136,0,0.32100000,0.01100000,0.94700000,0.15000000,0.13000000,-0.07000000,0.09829608,-0.03868226,-0.07418236,0.61000000,-18.78000000,0.13000000
137,0,0.32100000,0.01000000,0.94700000,0.07000000,-0.01000000,0.09000000,0.09838654,-0.03869518,-0.07406605,0.61000000,-18.78000000,0.13000000
138,0,0.32300000,0.01100000,0.94600000,-0.04000000,0.00000000,-0.08000000,0.09621627,-0.03869518,-0.07840659,0.61000000,-18.78000000,0.13000000
139,0,0.32000000,0.01300000,0.94300000,0.33000000,-0.17000000,-0.22000000,0.09670678,-0.03894787,-0.07873360,0.61000000,-18.78000000,0.14000000
140,0,0.32500000,0.01300000,0.94600000,-0.32000000,0.08000000,0.10000000,0.09627126,-0.03883899,-0.07859750,0.61000000,-18.78000000,0.14000000
141,0,0.32300000,0.01200000,0.94700000,0.05000000,-0.26000000,0.16000000,0.09634869,-0.03924164,-0.07834972,0.61000000,-18.78000000,0.14000000
142,0,0.32100000,0.01400000,0.95200000,0.26000000,0.02000000,-0.18000000,0.09670956,-0.03921388,-0.07859955,0.61000000,-18.78000000,0.14000000
143,0,0.32400000,0.01500000,0.95100000,-0.13000000,-0.04000000,0.12000000,0.09652885,-0.03926948,-0.07843274,0.61000000,-18.78000000,0.14000000
144,0,0.32400000,0.01400000,0.95000000,0.13000000,0.05000000,-0.23000000,0.10345847,-0.03660424,-0.09069284,0.61000000,-18.78000000,0.14000000
145,0,0.32100000,0.01500000,0.94800000,-0.01000000,-0.03000000,0.05000000,0.10344277,-0.03665134,-0.09061434,0.61000000,-18.78000000,0.14000000
146,0,0.32500000,0.00800000,0.94200000,-0.19000000,-0.05000000,0.11000000,0.10317865,-0.03672084,-0.09046143,0.61000000,-18.78000000,0.14000000
147,0,0.32300000,0.01400000,0.95000000,0.25000000,0.25000000,-0.43000000,0.10353535,-0.03636414,-0.09107496,0.61000000,-18.78000000,0.14000000
148,0,0.31900000,0.00800000,0.94700000,0.36000000,0.04000000,-0.04000000,0.10411286,-0.03629998,-0.09113913,0.61000000,-18.78000000,0.14000000
149,0,0.31600000,0.00800000,0.94900000,0.27000000,0.24000000,0.01000000,0.10500786,-0.03550442,-0.09110598,0.61000000,-18.78000000,0.14000000
150,0,0.32500000,0.00800000,0.94600000,0.02000000,-0.00000000,0.06000000,0.10603245,-0.03550442,-0.08803223,0.61000000,-18.78000000,0.14000000
151,0,0.31900000,0.01000000,0.94300000,0.09000000,0.11000000,0.03000000,0.10615264,-0.03535751,-0.08799217,0.61000000,-18.78000000,0.14000000
152,0,0.32400000,0.01200000,0.95200000,-0.11000000,-0.05000000,0.24000000,0.10598150,-0.03543530,-0.08761878,0.61000000,-18.78000000,0.14000000
153,0,0.32200000,0.00700000,0.94800000,-0.23000000,-0.04000000,-0.15000000,0.10564572,-0.03549370,-0.08783777,0.61000000,-18.78000000,0.14000000
154,0,0.32200000,0.01200000,0.94400000,0.18000000,0.11000000,-0.21000000,0.10590576,-0.03533478,-0.08814115,0.61000000,-18.78000000,0.14000000
155,0,0.32500000,0.00800000,0.95000000,-0.16000000,0.02000000,-0.07000000,0.10557486,-0.03529342,-0.08828592,0.61000000,-18.78000000,0.14000000
156,0,0.32400000,0.00800000,0.94700000,0.22000000,0.21000000,0.21000000,0.11732383,-0.02407849,-0.07707099,0.62000000,-18.78000000,0.14000000
157,0,0.32200000,0.00800000,0.95200000,-0.11000000,0.04000000,-0.09000000,0.11720132,-0.02403394,-0.07717123,0.61000000,-18.78000000,0.14000000
158,0,0.31700000,0.01000000,0.95000000,-0.18000000,0.10000000,-0.00000000,0.11699694,-0.02392039,-0.07717123,0.61000000,-18.77000000,0.14000000
159,0,0.31400000,0.00700000,0.95000000,-0.00000000,-0.26000000,-0.32000000,0.11699694,-0.02426582,-0.07759637,0.61000000,-18.77000000,0.14000000
160,0,0.33100000,0.00900000,0.95000000,-0.28000000,0.09000000,0.22000000,0.11663308,-0.02414887,-0.07731049,0.61000000,-18.78000000,0.14000000
161,0,0.31800000,0.01300000,0.94500000,-0.02000000,0.27000000,-0.11000000,0.11660885,-0.02382170,-0.07744378,0.61000000,-18.77000000,0.14000000
162,0,0.32400000,0.01600000,0.95200000,0.12000000,-0.24000000,0.06000000,0.12315299,-0.03690999,-0.07417171,0.61000000,-18.77000000,0.14000000
163,0,0.32800000,0.00800000,0.94500000,-0.29000000,-0.05000000,-0.06000000,0.12283387,-0.03696501,-0.07423773,0.61000000,-18.78000000,0.14000000
164,0,0.32100000,0.01200000,0.94800000,0.24000000,-0.14000000,0.16000000,0.12308138,-0.03710938,-0.07407273,0.60000000,-18.78000000,0.14000000
165,0,0.31800000,0.01100000,0.94700000,-0.13000000,-0.19000000,-0.17000000,0.12295227,-0.03729808,-0.07424156,0.60000000,-18.78000000,0.14000000
166,0,0.31800000,0.00900000,0.94600000,-0.25000000,-0.03000000,-0.02000000,0.12270280,-0.03732801,-0.07426151,0.60000000,-18.78000000,0.14000000
167,0,0.32000000,0.00900000,0.94800000,0.04000000,-0.10000000,-0.02000000,0.12274248,-0.03742721,-0.07428135,0.60000000,-18.77000000,0.14000000
168,0,0.32000000,0.00600000,0.95100000,-0.32000000,0.14000000,-0.04000000,0.10469145,-0.02952988,-0.07653773,0.60000000,-18.77000000,0.14000000
169,0,0.32300000,0.01600000,0.94300000,0.22000000,-0.02000000,-0.12000000,0.10500362,-0.02955826,-0.07670800,0.60000000,-18.77000000,0.14000000
170,0,0.32400000,0.00600000,0.95300000,-0.18000000,-0.09000000,0.06000000,0.10479893,-0.02966060,-0.07663978,0.60000000,-18.77000000,0.14000000
171,0,0.32100000,0.01100000,0.94600000,-0.18000000,0.19000000,0.07000000,0.10461047,-0.02946167,-0.07656649,0.60000000,-18.78000000,0.14000000
172,0,0.32100000,0.00500000,0.94900000,0.42000000,-0.22000000,-0.22000000,0.10503780,-0.02968551,-0.07679032,0.60000000,-18.78000000,0.14000000
173,0,0.31900000,0.01200000,0.95000000,0.00000000,0.22000000,0.02000000,0.10503780,-0.02945768,-0.07676961,0.60000000,-18.77000000,0.14000000
174,0,0.32200000,0.00400000,0.94400000,-0.02000000,0.30000000,0.22000000,0.10394064,-0.01300033,-0.06470089,0.60000000,-18.78000000,0.14000000
175,0,0.31700000,0.01000000,0.95000000,0.06000000,0.40000000,-0.01000000,0.10400280,-0.01258592,-0.06471125,0.60000000,-18.77000000,0.14000000
176,0,0.32300000,0.01100000,0.95200000,-0.08000000,-0.19000000,0.01000000,0.10392391,-0.01277330,-0.06470139,0.60000000,-18.77000000,0.14000000
177,0,0.32100000,0.00600000,0.94400000,0.11000000,-0.15000000,-0.02000000,0.10403367,-0.01292298,-0.06472134,0.60000000,-18.77000000,0.14000000
178,0,0.32200000,0.00900000,0.94900000,0.09000000,-0.06000000,-0.13000000,0.10412471,-0.01298367,-0.06485284,0.60000000,-18.78000000,0.14000000
179,0,0.32100000,0.01200000,0.94400000,-0.15000000,-0.13000000,-0.28000000,0.10396476,-0.01312229,-0.06515140,0.60000000,-18.78000000,0.14000000
180,0,0.32100000,0.00900000,0.95100000,-0.06000000,0.03000000,0.06000000,0.10063507,-0.01145744,-0.06182171,0.60000000,-18.78000000,0.14000000
181,0,0.32300000,0.01200000,0.94400000,-0.10000000,0.13000000,0.07000000,0.10053115,-0.01132236,-0.06174897,0.60000000,-18.78000000,0.15000000
182,0,0.32200000,0.00900000,0.94600000,0.05000000,0.05000000,0.03000000,0.10058045,-0.01127306,-0.06171939,0.59000000,-18.78000000,0.15000000
183,0,0.32600000,0.01200000,0.95300000,-0.10000000,0.29000000,0.09000000,0.10047647,-0.01097150,-0.06162580,0.60000000,-18.78000000,0.15000000
184,0,0.32400000,0.01000000,0.94600000,-0.13000000,0.06000000,0.12000000,0.10034656,-0.01091155,-0.06150589,0.59000000,-18.78000000,0.15000000
185,0,0.32500000,0.01300000,0.94700000,0.11000000,-0.02000000,0.09000000,0.10045517,-0.01093129,-0.06141702,0.60000000,-18.78000000,0.15000000
186,0,0.32400000,0.01100000,0.94500000,-0.07000000,-0.17000000,-0.24000000,0.09650936,-0.02051397,-0.07494551,0.60000000,-18.78000000,0.14000000
187,0,0.32300000,0.01600000,0.94400000,0.04000000,-0.09000000,0.08000000,0.09655136,-0.02060848,-0.07486150,0.60000000,-18.78000000,0.14000000
188,0,0.32000000,0.00800000,0.94500000,-0.06000000,-0.16000000,0.04000000,0.09649062,-0.02077047,-0.07482100,0.60000000,-18.78000000,0.14000000
189,0,0.31600000,0.01500000,0.94600000,0.11000000,0.07000000,-0.05000000,0.09660112,-0.02070015,-0.07487123,0.60000000,-18.77000000,0.14000000
190,0,0.31800000,0.01000000,0.94500000,-0.03000000,-0.10000000,-0.04000000,0.09657157,-0.02079865,-0.07491063,0.60000000,-18.77000000,0.15000000
191,0,0.32300000,0.01300000,0.94300000,0.03000000,0.02000000,0.15000000,0.09660360,-0.02077730,-0.07475047,0.60000000,-18.77000000,0.14000000
192,0,0.32100000,0.01200000,0.94700000,-0.12000000,-0.32000000,-0.02000000,0.08995243,-0.03851376,-0.07585900,0.60000000,-18.77000000,0.14000000
193,0,0.32700000,0.00700000,0.94200000,-0.02000000,0.07000000,-0.20000000,0.08993163,-0.03844096,-0.07606702,0.60000000,-18.78000000,0.14000000
194,0,0.32100000,0.01000000,0.94500000,-0.14000000,0.11000000,0.10000000,0.08978958,-0.03832935,-0.07596556,0.60000000,-18.78000000,0.14000000
195,0,0.32400000,0.01200000,0.94300000,0.16000000,-0.04000000,0.11000000,0.08994997,-0.03836945,-0.07585529,0.60000000,-18.77000000,0.14000000
196,0,0.32700000,0.01300000,0.94800000,0.08000000,0.09000000,-0.05000000,0.09002877,-0.03828080,-0.07590454,0.60000000,-18.78000000,0.14000000
197,0,0.32600000,0.01300000,0.94400000,0.02000000,0.01000000,0.02000000,0.09004854,-0.03827092,-0.07588478,0.60000000,-18.78000000,0.14000000
198,0,0.32300000,0.01200000,0.94500000,-0.20000000,-0.17000000,0.03000000,0.07892114,-0.04772920,-0.07421567,0.60000000,-18.78000000,0.14000000
199,0,0.31900000,0.00400000,0.94600000,-0.14000000,0.07000000,0.01000000,0.07877690,-0.04765708,-0.07420536,0.60000000,-18.78000000,0.14000000
200,0,0.32200000,0.00800000,0.94900000,0.07000000,0.12000000,-0.12000000,0.07885868,-0.04751688,-0.07434557,0.60000000,-18.78000000,0.14000000
201,0,0.31800000,0.00900000,0.94600000,0.04000000,0.08000000,0.17000000,0.07889877,-0.04743671,-0.07417520,0.60000000,-18.78000000,0.14000000
202,0,0.32800000,0.00600000,0.94800000,0.10000000,0.17000000,-0.20000000,0.07899744,-0.04726897,-0.07437253,0.60000000,-18.77000000,0.14000000
203,0,0.31900000,0.00900000,0.94400000,0.12000000,0.06000000,0.24000000,0.07911615,-0.04720961,-0.07413510,0.60000000,-18.77000000,0.14000000
204,0,0.32400000,0.01000000,0.94400000,0.23000000,0.08000000,-0.08000000,0.09205962,-0.04270754,-0.07863718,0.60000000,-18.78000000,0.14000000
205,0,0.32500000,0.00800000,0.94800000,-0.06000000,-0.08000000,0.17000000,0.09199673,-0.04279139,-0.07845898,0.60000000,-18.77000000,0.14000000
206,0,0.32500000,0.00600000,0.94600000,0.04000000,-0.01000000,-0.06000000,0.09203677,-0.04280140,-0.07851904,0.60000000,-18.78000000,0.14000000
207,0,0.32400000,0.00800000,0.94200000,0.09000000,0.21000000,-0.16000000,0.09213173,-0.04257983,-0.07868786,0.60000000,-18.78000000,0.14000000
208,0,0.31900000,0.00700000,0.94800000,0.12000000,-0.12000000,0.05000000,0.09225205,-0.04270015,-0.07863773,0.60000000,-18.77000000,0.14000000
209,0,0.32100000,0.00800000,0.94200000,-0.08000000,0.12000000,0.16000000,0.09217313,-0.04258177,-0.07847990,0.60000000,-18.77000000,0.14000000
210,0,0.32000000,0.00800000,0.94700000,0.07000000,0.12000000,-0.00000000,0.09605654,-0.03592451,-0.07847990,0.60000000,-18.77000000,0.14000000
211,0,0.32400000,0.01400000,0.94600000,0.08000000,-0.09000000,-0.01000000,0.09614097,-0.03601949,-0.07849045,0.60000000,-18.77000000,0.14000000
212,0,0.32000000,0.00600000,0.94500000,0.12000000,0.02000000,0.21000000,0.09626071,-0.03599953,-0.07828089,0.60000000,-18.77000000,0.14000000
213,0,0.32200000,0.00900000,0.94900000,0.17000000,-0.03000000,-0.04000000,0.09642962,-0.03602934,-0.07832064,0.60000000,-18.77000000,0.14000000
214,0,0.31500000,0.00800000,0.94100000,-0.05000000,0.15000000,-0.12000000,0.09638043,-0.03588176,-0.07843870,0.60000000,-18.77000000,0.14000000
215,0,0.31800000,0.01000000,0.94500000,0.05000000,0.02000000,0.17000000,0.09643005,-0.03586192,-0.07826999,0.60000000,-18.77000000,0.14000000
216,0,0.32700000,0.01300000,0.94600000,-0.02000000,-0.14000000,-0.18000000,0.09531861,-0.04364205,-0.08827301,0.60000000,-18.77000000,0.14000000
217,0,0.32000000,0.00900000,0.94900000,-0.16000000,-0.07000000,0.21000000,0.09514952,-0.04371602,-0.08805109,0.60000000,-18.77000000,0.14000000
218,0,0.32300000,0.00900000,0.94500000,0.40000000,0.20000000,-0.09000000,0.09555087,-0.04351535,-0.08814140,0.60000000,-18.77000000,0.14000000
219,0,0.32100000,0.01300000,0.95200000,0.02000000,-0.17000000,0.19000000,0.09557068,-0.04368373,-0.08795320,0.60000000,-18.77000000,0.14000000
220,0,0.32100000,0.01200000,0.94600000,0.02000000,-0.01000000,-0.02000000,0.09559039,-0.04369359,-0.08797292,0.60000000,-18.77000000,0.14000000
221,0,0.32200000,0.01200000,0.94900000,-0.15000000,0.21000000,-0.19000000,0.09544203,-0.04348589,-0.08816084,0.60000000,-18.77000000,0.14000000
222,0,0.32500000,0.01400000,0.94400000,-0.13000000,-0.22000000,0.42000000,0.08809135,-0.05592550,-0.06441249,0.60000000,-18.78000000,0.14000000
223,0,0.32000000,0.00700000,0.94800000,0.01000000,0.05000000,-0.05000000,0.08810172,-0.05587367,-0.06446431,0.60000000,-18.78000000,0.14000000
224,0,0.32300000,0.01000000,0.94900000,-0.12000000,-0.04000000,-0.22000000,0.08798297,-0.05591325,-0.06468201,0.60000000,-18.78000000,0.14000000
225,0,0.32700000,0.01200000,0.94900000,-0.24000000,-0.18000000,-0.02000000,0.08774640,-0.05609069,-0.06470173,0.60000000,-18.78000000,0.14000000
226,0,0.32300000,0.01000000,0.94900000,0.28000000,0.02000000,0.03000000,0.08802260,-0.05607096,-0.06467213,0.60000000,-18.78000000,0.14000000
227,0,0.32200000,0.01000000,0.95100000,0.05000000,-0.27000000,-0.16000000,0.08807477,-0.05635268,-0.06483908,0.60000000,-18.78000000,0.14000000
228,0,0.32100000,0.00800000,0.94700000,0.07000000,-0.18000000,0.06000000,0.09195760,-0.06633708,-0.06151095,0.60000000,-18.78000000,0.14000000
229,0,0.32100000,0.01200000,0.94700000,0.39000000,-0.16000000,0.06000000,0.09237699,-0.06650914,-0.06144642,0.60000000,-18.78000000,0.14000000
230,0,0.32100000,0.01200000,0.94300000,0.40000000,0.01000000,-0.07000000,0.09277739,-0.06649913,-0.06151649,0.60000000,-18.78000000,0.14000000
231,0,0.32500000,0.00900000,0.94600000,0.25000000,0.08000000,-0.18000000,0.09302197,-0.06642087,-0.06169259,0.60000000,-18.78000000,0.14000000
232,0,0.32400000,0.01300000,0.94600000,-0.12000000,0.16000000,-0.05000000,0.09290431,-0.06626399,-0.06174162,0.60000000,-18.78000000,0.14000000
233,0,0.32000000,0.01200000,0.94600000,-0.33000000,0.05000000,0.10000000,0.09257312,-0.06621381,-0.06164126,0.60000000,-18.78000000,0.14000000
234,0,0.32500000,0.00600000,0.94700000,-0.17000000,0.09000000,-0.03000000,0.08309716,-0.06119712,-0.06331348,0.61000000,-18.79000000,0.14000000
235,0,0.32200000,0.00900000,0.94900000,0.16000000,-0.06000000,-0.04000000,0.08326895,-0.06126155,-0.06335643,0.60000000,-18.79000000,0.14000000
236,0,0.32200000,0.00600000,0.95100000,-0.00000000,-0.22000000,0.11000000,0.08326895,-0.06150678,-0.06323381,0.60000000,-18.79000000,0.14000000
237,0,0.32700000,0.00900000,0.94500000,0.07000000,0.04000000,-0.23000000,0.08334340,-0.06146424,-0.06347841,0.60000000,-18.79000000,0.14000000
238,0,0.32400000,0.00800000,0.94400000,0.07000000,0.02000000,-0.28000000,0.08341572,-0.06144358,-0.06376770,0.60000000,-18.79000000,0.14000000
239,0,0.31800000,0.01000000,0.95000000,-0.11000000,0.06000000,0.26000000,0.08330356,-0.06138241,-0.06350260,0.60000000,-18.79000000,0.14000000
240,0,0.32200000,0.01100000,0.94200000,-0.40000000,0.11000000,0.00000000,0.05967920,-0.05488571,-0.06350260,0.60000000,-18.79000000,0.14000000
241,0,0.32200000,0.00700000,0.94400000,-0.01000000,0.02000000,0.06000000,0.05966885,-0.05486500,-0.06344050,0.60000000,-18.78000000,0.14000000
242,0,0.32000000,0.00800000,0.94700000,-0.04000000,0.01000000,0.00000000,0.05962886,-0.05485501,-0.06344050,0.60000000,-18.79000000,0.14000000
243,0,0.32200000,0.00900000,0.94800000,-0.09000000,-0.01000000,0.06000000,0.05953827,-0.05486507,-0.06338011,0.60000000,-18.79000000,0.14000000
244,0,0.32200000,0.01200000,0.94500000,0.30000000,-0.04000000,-0.07000000,0.05983421,-0.05490453,-0.06344916,0.60000000,-18.79000000,0.14000000
245,0,0.32000000,0.01200000,0.95000000,-0.41000000,0.10000000,-0.00000000,0.05939379,-0.05479711,-0.06344916,0.60000000,-18.79000000,0.14000000
246,0,0.32300000,0.01000000,0.94300000,-0.09000000,-0.19000000,-0.27000000,0.05929630,-0.05500293,-0.06374164,0.60000000,-18.79000000,0.14000000
247,0,0.32200000,0.00700000,0.94900000,-0.24000000,0.36000000,0.02000000,0.04600059,-0.03505936,-0.06263366,0.60000000,-18.79000000,0.14000000
248,0,0.32200000,0.00900000,0.94400000,0.16000000,0.04000000,0.15000000,0.04616811,-0.03501748,-0.06247661,0.60000000,-18.79000000,0.14000000
249,0,0.32200000,0.00900000,0.95200000,0.04000000,-0.08000000,0.17000000,0.04620799,-0.03509723,-0.06230713,0.60000000,-18.79000000,0.14000000
250,0,0.32300000,0.01100000,0.94300000,0.09000000,-0.02000000,0.13000000,0.04629707,-0.03511703,-0.06217846,0.60000000,-18.79000000,0.14000000
251,0,0.32100000,0.01500000,0.94500000,-0.18000000,0.11000000,0.07000000,0.04611702,-0.03500700,-0.06210844,0.60000000,-18.79000000,0.14000000
252,0,0.31700000,0.00900000,0.94300000,0.13000000,0.17000000,-0.08000000,0.04624519,-0.03483938,-0.06218732,0.60000000,-18.79000000,0.14000000
253,0,0.32000000,0.00800000,0.95000000,-0.01000000,-0.26000000,0.31000000,0.04568920,-0.04929514,-0.04495161,0.60000000,-18.79000000,0.14000000
254,0,0.32300000,0.01300000,0.94700000,-0.06000000,0.05000000,-0.06000000,0.04561530,-0.04923355,-0.04502551,0.60000000,-18.79000000,0.14000000
255,0,0.32700000,0.01000000,0.94700000,0.01000000,0.14000000,-0.03000000,0.04562606,-0.04908287,-0.04505780,0.59000000,-18.79000000,0.15000000
256,0,0.31900000,0.00600000,0.94400000,0.06000000,-0.13000000,0.08000000,0.04568848,-0.04921811,-0.04497458,0.60000000,-18.79000000,0.15000000
257,0,0.32700000,0.01200000,0.94800000,0.17000000,0.14000000,-0.07000000,0.04585889,-0.04907777,-0.04504475,0.59000000,-18.79000000,0.14000000
258,0,0.32200000,0.01100000,0.94500000,0.07000000,0.11000000,-0.17000000,0.04592894,-0.04896769,-0.04521487,0.59000000,-18.79000000,0.14000000
259,0,0.32200000,0.01000000,0.94300000,-0.16000000,0.14000000,-0.17000000,0.03695939,-0.04111933,-0.05474502,0.60000000,-18.78000000,0.14000000
260,0,0.32500000,0.00900000,0.94600000,0.26000000,0.05000000,0.16000000,0.03722851,-0.04106758,-0.05457941,0.60000000,-18.79000000,0.14000000
261,0,0.32100000,0.00600000,0.94600000,-0.16000000,-0.09000000,-0.22000000,0.03707079,-0.04115629,-0.05479627,0.59000000,-18.79000000,0.14000000
262,0,0.32500000,0.00900000,0.95100000,0.07000000,0.08000000,-0.15000000,0.03714251,-0.04107433,-0.05494996,0.59000000,-18.79000000,0.14000000
263,0,0.32600000,0.01100000,0.94200000,-0.06000000,-0.12000000,0.10000000,0.03707356,-0.04121224,-0.05483503,0.59000000,-18.79000000,0.14000000
264,0,0.31900000,0.00500000,0.94600000,-0.08000000,0.05000000,-0.17000000,0.03699325,-0.04116205,-0.05500568,0.59000000,-18.78000000,0.14000000
265,0,0.32200000,0.00700000,0.94700000,0.25000000,-0.01000000,0.03000000,0.05100555,-0.04172254,-0.05332421,0.59000000,-18.79000000,0.14000000
266,0,0.32300000,0.01100000,0.94700000,0.09000000,0.05000000,0.21000000,0.05111092,-0.04166400,-0.05307835,0.59000000,-18.79000000,0.15000000
267,0,0.31600000,0.01200000,0.94800000,0.21000000,-0.02000000,0.13000000,0.05141941,-0.04169338,-0.05288738,0.59000000,-18.79000000,0.15000000
268,0,0.32300000,0.00900000,0.94700000,-0.06000000,0.08000000,-0.03000000,0.05133191,-0.04157672,-0.05293113,0.59000000,-18.79000000,0.15000000
269,0,0.31900000,0.01100000,0.94700000,-0.22000000,-0.07000000,-0.01000000,0.05106832,-0.04166059,-0.05294311,0.59000000,-18.79000000,0.14000000
270,0,0.32500000,0.01200000,0.94600000,0.00000000,0.02000000,0.12000000,0.05106832,-0.04163408,-0.05278405,0.59000000,-18.79000000,0.14000000
271,0,0.32100000,0.00600000,0.94700000,0.16000000,-0.07000000,0.35000000,0.05962298,-0.04537675,-0.03407072,0.59000000,-18.78000000,0.15000000
272,0,0.31900000,0.01000000,0.94500000,-0.01000000,0.06000000,-0.00000000,0.05961183,-0.04530985,-0.03407072,0.59000000,-18.79000000,0.15000000
273,0,0.32200000,0.00800000,0.95000000,0.03000000,0.30000000,-0.26000000,0.05964318,-0.04499640,-0.03434238,0.59000000,-18.79000000,0.15000000
274,0,0.32300000,0.00900000,0.94400000,-0.02000000,-0.25000000,0.16000000,0.05962216,-0.04525910,-0.03417425,0.59000000,-18.79000000,0.15000000
275,0,0.32700000,0.01100000,0.95000000,-0.23000000,-0.20000000,-0.01000000,0.05934308,-0.04550178,-0.03418639,0.59000000,-18.79000000,0.15000000
276,0,0.31900000,0.00900000,0.94700000,0.01000000,-0.10000000,0.00000000,0.05935409,-0.04561187,-0.03418639,0.59000000,-18.79000000,0.14000000
277,0,0.31700000,0.01000000,0.94400000,0.04000000,-0.25000000,-0.02000000,0.06158746,-0.05957047,-0.03530308,0.59000000,-18.79000000,0.14000000
278,0,0.32400000,0.00900000,0.94900000,0.10000000,-0.03000000,0.38000000,0.06169290,-0.05960210,-0.03490241,0.59000000,-18.79000000,0.14000000
279,0,0.32200000,0.00400000,0.94300000,0.03000000,0.08000000,-0.09000000,0.06172352,-0.05952044,-0.03499428,0.59000000,-18.79000000,0.15000000
280,0,0.32300000,0.01600000,0.95000000,0.09000000,0.08000000,-0.04000000,0.06181323,-0.05944070,-0.03503415,0.59000000,-18.79000000,0.14000000
281,0,0.32100000,0.00700000,0.95000000,-0.07000000,0.06000000,-0.23000000,0.06174361,-0.05938103,-0.03526289,0.59000000,-18.78000000,0.14000000
282,0,0.32600000,0.01100000,0.94700000,-0.18000000,-0.13000000,0.03000000,0.06156373,-0.05951094,-0.03523291,0.59000000,-18.78000000,0.14000000
283,0,0.32200000,0.01200000,0.94500000,0.02000000,0.06000000,-0.12000000,0.06267779,-0.05616878,-0.04191725,0.59000000,-18.78000000,0.14000000
284,0,0.32400000,0.00900000,0.94700000,0.15000000,0.23000000,0.02000000,0.06285168,-0.05590214,-0.04189406,0.60000000,-18.78000000,0.14000000
285,0,0.32400000,0.01200000,0.94500000,-0.23000000,0.08000000,-0.19000000,0.06255631,-0.05579940,-0.04213806,0.60000000,-18.79000000,0.14000000
286,0,0.32000000,0.00900000,0.94500000,0.18000000,-0.23000000,0.01000000,0.06277095,-0.05607366,-0.04212614,0.60000000,-18.79000000,0.14000000
287,0,0.32400000,0.01300000,0.94600000,0.05000000,-0.06000000,-0.05000000,0.06282889,-0.05614319,-0.04218408,0.60000000,-18.79000000,0.14000000
288,0,0.32500000,0.00900000,0.94300000,-0.06000000,-0.12000000,0.06000000,0.06276115,-0.05627867,-0.04211634,0.60000000,-18.79000000,0.14000000
289,0,0.32100000,0.00800000,0.94400000,0.07000000,0.07000000,-0.05000000,0.06661852,-0.05242130,-0.04487160,0.60000000,-18.79000000,0.14000000
290,0,0.32000000,0.01000000,0.94600000,0.21000000,-0.15000000,0.21000000,0.06683909,-0.05257885,-0.04465103,0.60000000,-18.79000000,0.14000000
291,0,0.32200000,0.01200000,0.94500000,-0.23000000,0.22000000,-0.16000000,0.06661002,-0.05235973,-0.04481039,0.60000000,-18.79000000,0.14000000
292,0,0.31700000,0.01100000,0.94800000,-0.04000000,-0.29000000,-0.31000000,0.06650095,-0.05315046,-0.04565565,0.60000000,-18.79000000,0.14000000
293,0,0.32200000,0.01300000,0.94600000,-0.24000000,-0.16000000,-0.09000000,0.06624195,-0.05332313,-0.04575278,0.60000000,-18.79000000,0.14000000
294,0,0.32400000,0.01100000,0.94700000,0.35000000,-0.03000000,-0.05000000,0.06666155,-0.05335910,-0.04581272,0.60000000,-18.79000000,0.14000000
295,0,0.32300000,0.01000000,0.94700000,-0.18000000,-0.00000000,0.06000000,0.05681306,-0.05335910,-0.04252989,0.60000000,-18.79000000,0.14000000
296,0,0.32000000,0.01000000,0.94500000,-0.13000000,0.19000000,0.03000000,0.05665959,-0.05313480,-0.04249448,0.60000000,-18.79000000,0.14000000
297,0,0.31700000,0.00800000,0.94800000,-0.06000000,-0.01000000,0.02000000,0.05659158,-0.05314614,-0.04247181,0.60000000,-18.79000000,0.14000000
298,0,0.32300000,0.00800000,0.94400000,0.02000000,0.04000000,0.02000000,0.05661334,-0.05310263,-0.04245005,0.60000000,-18.78000000,0.14000000
299,0,0.32500000,0.00900000,0.94700000,0.11000000,-0.20000000,0.17000000,0.05672921,-0.05331331,-0.04227097,0.60000000,-18.79000000,0.14000000
300,0,0.32000000,0.01000000,0.94900000,-0.18000000,-0.32000000,-0.03000000,0.05654899,-0.05363371,-0.04230101,0.60000000,-18.79000000,0.14000000
301,0,0.32300000,0.01200000,0.94600000,0.02000000,0.05000000,0.00000000,0.05763557,-0.05091727,-0.04230101,0.60000000,-18.79000000,0.14000000
302,0,0.32000000,0.00700000,0.94500000,0.04000000,0.03000000,-0.36000000,0.05768209,-0.05088238,-0.04271964,0.60000000,-18.79000000,0.14000000
303,0,0.32300000,0.01000000,0.94900000,0.04000000,-0.11000000,0.18000000,0.05772482,-0.05099991,-0.04252732,0.60000000,-18.79000000,0.14000000
304,0,0.32400000,0.01100000,0.95100000,0.37000000,0.12000000,-0.22000000,0.05811301,-0.05087401,-0.04275813,0.60000000,-18.79000000,0.14000000
305,0,0.32300000,0.00900000,0.94700000,-0.00000000,-0.10000000,-0.12000000,0.05811301,-0.05097778,-0.04288265,0.60000000,-18.79000000,0.14000000
306,0,0.32500000,0.00700000,0.94900000,-0.27000000,-0.12000000,0.12000000,0.05782047,-0.05110780,-0.04275264,0.60000000,-18.79000000,0.14000000
307,0,0.32200000,0.00400000,0.94700000,0.31000000,0.15000000,-0.06000000,0.07499595,-0.04279709,-0.04607692,0.60000000,-18.79000000,0.14000000
308,0,0.31900000,0.00700000,0.94700000,0.04000000,-0.28000000,-0.07000000,0.07504259,-0.04312362,-0.04615856,0.60000000,-18.79000000,0.14000000
309,0,0.31700000,0.01000000,0.94800000,-0.18000000,-0.19000000,0.12000000,0.07485332,-0.04332341,-0.04603237,0.60000000,-18.79000000,0.14000000
310,0,0.32000000,0.01300000,0.94400000,0.27000000,-0.07000000,0.16000000,0.07513891,-0.04339746,-0.04586314,0.60000000,-18.79000000,0.14000000
311,0,0.32100000,0.01200000,0.94700000,-0.07000000,0.15000000,0.17000000,0.07506862,-0.04324684,-0.04569244,0.60000000,-18.79000000,0.14000000
312,0,0.31600000,0.00500000,0.94600000,-0.02000000,-0.10000000,0.22000000,0.07504834,-0.04334825,-0.04546934,0.60000000,-18.79000000,0.14000000
313,0,0.32500000,0.01000000,0.94700000,0.35000000,-0.15000000,-0.14000000,0.09467124,-0.05175807,-0.05331850,0.60000000,-18.79000000,0.14000000
314,0,0.32500000,0.00800000,0.94800000,-0.12000000,0.02000000,0.20000000,0.09452631,-0.05173391,-0.05307696,0.60000000,-18.79000000,0.14000000
315,0,0.32100000,0.01000000,0.94500000,0.07000000,0.06000000,-0.01000000,0.09463495,-0.05164079,-0.05309248,0.60000000,-18.79000000,0.14000000
316,0,0.31700000,0.01100000,0.94900000,0.01000000,0.13000000,-0.05000000,0.09465361,-0.05139816,-0.05318580,0.60000000,-18.79000000,0.14000000
317,0,0.31800000,0.01000000,0.94100000,0.17000000,0.11000000,0.29000000,0.09487258,-0.05125647,-0.05281227,0.60000000,-18.79000000,0.14000000
318,0,0.32000000,0.01200000,0.95100000,0.10000000,-0.13000000,0.09000000,0.09500391,-0.05142720,-0.05269407,0.60000000,-18.79000000,0.14000000
319,0,0.32700000,0.00800000,0.94700000,-0.21000000,0.21000000,-0.03000000,0.08381822,-0.04024151,-0.05429203,0.60000000,-18.79000000,0.14000000
320,0,0.32100000,0.01100000,0.94600000,0.11000000,0.12000000,-0.03000000,0.08393656,-0.04011241,-0.05432431,0.60000000,-18.79000000,0.14000000
321,0,0.32100000,0.00500000,0.94900000,0.11000000,-0.01000000,-0.02000000,0.08404898,-0.04012263,-0.05434474,0.60000000,-18.79000000,0.14000000
322,0,0.32200000,0.00500000,0.95000000,-0.01000000,0.18000000,-0.33000000,0.08403799,-0.03992473,-0.05470756,0.60000000,-18.79000000,0.14000000
323,0,0.31900000,0.01200000,0.94800000,-0.15000000,-0.12000000,0.27000000,0.08385751,-0.04006911,-0.05438271,0.60000000,-18.79000000,0.14000000
324,0,0.32100000,0.01700000,0.94700000,0.26000000,0.01000000,0.04000000,0.08419563,-0.04005610,-0.05433069,0.60000000,-18.78000000,0.14000000
325,0,0.32100000,0.01000000,0.95200000,-0.15000000,0.07000000,-0.06000000,0.07593094,-0.03619925,-0.05763657,0.60000000,-18.78000000,0.14000000
326,0,0.32100000,0.00900000,0.94600000,0.09000000,0.24000000,-0.18000000,0.07603130,-0.03593160,-0.05783730,0.60000000,-18.79000000,0.14000000
327,0,0.32900000,0.01100000,0.94400000,-0.07000000,-0.10000000,-0.01000000,0.07595683,-0.03603800,-0.05784794,0.60000000,-18.79000000,0.14000000
328,0,0.32000000,0.01100000,0.95200000,-0.05000000,0.25000000,-0.37000000,0.07590429,-0.03577529,-0.05823674,0.60000000,-18.79000000,0.14000000
329,0,0.32300000,0.00400000,0.94800000,-0.30000000,0.05000000,-0.08000000,0.07559791,-0.03572423,-0.05831844,0.60000000,-18.78000000,0.14000000
330,0,0.32200000,0.01200000,0.94400000,0.34000000,0.07000000,0.12000000,0.07593622,-0.03565458,-0.05819904,0.60000000,-18.78000000,0.14000000
331,0,0.32000000,0.01300000,0.94900000,-0.16000000,0.19000000,-0.05000000,0.06693806,-0.02496926,-0.06101096,0.60000000,-18.78000000,0.14000000
332,0,0.32300000,0.00800000,0.94700000,-0.21000000,-0.22000000,0.19000000,0.06668775,-0.02523149,-0.06078449,0.60000000,-18.78000000,0.14000000
333,0,0.31600000,0.01000000,0.94600000,0.41000000,0.21000000,-0.11000000,0.06713021,-0.02500486,-0.06090320,0.59000000,-18.78000000,0.14000000
334,0,0.31900000,0.01100000,0.94800000,-0.08000000,-0.02000000,0.34000000,0.06704340,-0.02502657,-0.06053425,0.60000000,-18.78000000,0.14000000
335,0,0.32100000,0.01600000,0.94500000,0.33000000,-0.24000000,-0.26000000,0.06737404,-0.02526703,-0.06079476,0.60000000,-18.78000000,0.14000000
336,0,0.32100000,0.00500000,0.95100000,-0.19000000,-0.24000000,0.25000000,0.06718481,-0.02550607,-0.06054576,0.60000000,-18.78000000,0.14000000
337,0,0.31900000,0.00800000,0.94400000,0.06000000,-0.19000000,-0.15000000,0.07048642,-0.03596117,-0.06879979,0.60000000,-18.78000000,0.14000000
338,0,0.32000000,0.01000000,0.94900000,-0.23000000,0.05000000,-0.08000000,0.07023766,-0.03590709,-0.06888632,0.60000000,-18.78000000,0.14000000
339,0,0.32400000,0.01000000,0.94300000,-0.26000000,0.23000000,-0.23000000,0.06997604,-0.03567566,-0.06911775,0.60000000,-18.78000000,0.14000000
340,0,0.32300000,0.01000000,0.94900000,-0.21000000,0.14000000,0.13000000,0.06975957,-0.03553135,-0.06898375,0.60000000,-18.78000000,0.14000000
341,0,0.32000000,0.01100000,0.94800000,0.19000000,-0.15000000,-0.03000000,0.06995973,-0.03568937,-0.06901535,0.60000000,-18.78000000,0.14000000
342,0,0.31600000,0.01000000,0.94600000,-0.08000000,-0.05000000,0.28000000,0.06987799,-0.03574045,-0.06872927,0.60000000,-18.78000000,0.14000000
343,0,0.32200000,0.00900000,0.94200000,0.22000000,-0.10000000,0.12000000,0.08228870,-0.04138168,-0.06195979,0.60000000,-18.78000000,0.14000000
344,0,0.32400000,0.01100000,0.94900000,0.20000000,-0.01000000,0.27000000,0.08251021,-0.04139276,-0.06166075,0.60000000,-18.78000000,0.14000000
345,0,0.31900000,0.00900000,0.94300000,-0.29000000,0.09000000,-0.03000000,0.08221066,-0.04129980,-0.06169174,0.60000000,-18.78000000,0.14000000
346,0,0.32400000,0.00800000,0.94800000,0.14000000,0.10000000,-0.27000000,0.08235303,-0.04119810,-0.06196632,0.60000000,-18.78000000,0.14000000
347,0,0.32000000,0.01500000,0.94800000,-0.10000000,0.10000000,0.05000000,0.08225367,-0.04109874,-0.06191664,0.60000000,-18.78000000,0.14000000
348,0,0.32500000,0.01400000,0.94700000,-0.14000000,-0.01000000,0.02000000,0.08211457,-0.04110868,-0.06189676,0.60000000,-18.78000000,0.14000000
349,0,0.32100000,0.01100000,0.94800000,-0.22000000,-0.22000000,-0.02000000,0.06994986,-0.05327339,-0.06300265,0.60000000,-18.78000000,0.14000000
350,0,0.32300000,0.00500000,0.94600000,0.32000000,-0.40000000,-0.05000000,0.07030199,-0.05371355,-0.06305767,0.59000000,-18.78000000,0.14000000
351,0,0.32200000,0.01300000,0.94400000,-0.19000000,-0.05000000,0.07000000,0.07010225,-0.05376611,-0.06298408,0.59000000,-18.78000000,0.14000000
352,0,0.32400000,0.01100000,0.94700000,-0.05000000,-0.12000000,-0.02000000,0.07004817,-0.05389590,-0.06300571,0.59000000,-18.78000000,0.14000000
353,0,0.32200000,0.01500000,0.94300000,0.27000000,-0.05000000,-0.18000000,0.07033453,-0.05394893,-0.06319661,0.59000000,-18.78000000,0.14000000
354,0,0.32200000,0.00700000,0.95000000,-0.25000000,-0.27000000,-0.08000000,0.07006354,-0.05424160,-0.06328333,0.59000000,-18.78000000,0.14000000
355,0,0.32500000,0.01600000,0.95200000,0.02000000,0.04000000,-0.20000000,0.07116956,-0.05202955,-0.07434359,0.60000000,-18.78000000,0.14000000
356,0,0.32300000,0.01300000,0.94600000,0.05000000,-0.12000000,-0.00000000,0.07122458,-0.05216160,-0.07434359,0.59000000,-18.78000000,0.14000000
357,0,0.32000000,0.00700000,0.94600000,-0.33000000,0.06000000,0.04000000,0.07088781,-0.05210036,-0.07430277,0.59000000,-18.78000000,0.14000000
358,0,0.32000000,0.01200000,0.94400000,0.19000000,0.25000000,0.03000000,0.07107700,-0.05185143,-0.07427290,0.59000000,-18.78000000,0.14000000
359,0,0.31900000,0.01000000,0.94500000,-0.05000000,0.05000000,0.09000000,0.07102747,-0.05180190,-0.07418375,0.60000000,-18.78000000,0.14000000
360,0,0.32300000,0.01000000,0.94800000,-0.12000000,-0.04000000,0.25000000,0.07090747,-0.05184191,-0.07393374,0.59000000,-18.78000000,0.14000000
361,0,0.32200000,0.01100000,0.94500000,0.10000000,0.07000000,-0.07000000,0.07648395,-0.04793837,-0.07783728,0.59000000,-18.78000000,0.14000000
362,0,0.31700000,0.01200000,0.94700000,0.29000000,-0.20000000,0.06000000,0.07699867,-0.04829335,-0.07773078,0.59000000,-18.78000000,0.14000000
363,0,0.32300000,0.00700000,0.94400000,-0.31000000,0.07000000,0.25000000,0.07660107,-0.04820357,-0.07741015,0.59000000,-18.78000000,0.14000000
364,0,0.32800000,0.01000000,0.94400000,0.32000000,0.07000000,-0.24000000,0.07694794,-0.04812769,-0.07767029,0.59000000,-18.78000000,0.14000000
365,0,0.32700000,0.00800000,0.94900000,-0.06000000,0.07000000,0.10000000,0.07688603,-0.04805547,-0.07756712,0.59000000,-18.78000000,0.14000000
366,0,0.32100000,0.01000000,0.94600000,0.15000000,0.02000000,0.03000000,0.07706855,-0.04803114,-0.07753062,0.60000000,-18.78000000,0.14000000
367,0,0.32800000,0.01100000,0.95000000,0.22000000,-0.17000000,0.09000000,0.07730550,-0.04821423,-0.07743368,0.60000000,-18.78000000,0.14000000
368,0,0.32500000,0.01000000,0.94900000,-0.39000000,-0.19000000,0.12000000,0.05480500,-0.05917601,-0.07051045,0.60000000,-18.78000000,0.14000000
369,0,0.31400000,0.00700000,0.94600000,-0.01000000,0.10000000,-0.06000000,0.05479262,-0.05905222,-0.07058473,0.60000000,-18.78000000,0.14000000
370,0,0.33100000,0.00900000,0.94300000,0.21000000,-0.19000000,-0.35000000,0.05505580,-0.05929033,-0.07102336,0.59000000,-18.78000000,0.14000000
371,0,0.32300000,0.00500000,0.94400000,-0.19000000,-0.13000000,0.23000000,0.05485098,-0.05943047,-0.07077543,0.59000000,-18.79000000,0.14000000
372,0,0.32600000,0.01200000,0.94700000,0.36000000,0.09000000,0.01000000,0.05522670,-0.05933654,-0.07076499,0.59000000,-18.79000000,0.14000000
373,0,0.31800000,0.01300000,0.94800000,0.02000000,-0.27000000,-0.25000000,0.05524829,-0.05962811,-0.07103496,0.59000000,-18.79000000,0.14000000
374,0,0.33400000,0.00600000,0.94700000,-0.21000000,0.18000000,0.09000000,0.04371198,-0.04973984,-0.06609083,0.59000000,-18.79000000,0.14000000
375,0,0.31900000,0.00900000,0.94300000,0.02000000,-0.13000000,0.06000000,0.04373429,-0.04988488,-0.06602389,0.59000000,-18.79000000,0.14000000
376,0,0.32000000,0.00800000,0.94700000,0.30000000,0.01000000,0.01000000,0.04404016,-0.04987468,-0.06601369,0.59000000,-18.79000000,0.14000000
377,0,0.32000000,0.01500000,0.94600000,-0.29000000,0.29000000,0.05000000,0.04373322,-0.04956773,-0.06596077,0.59000000,-18.79000000,0.14000000
378,0,0.32200000,0.01300000,0.94900000,-0.04000000,0.19000000,0.14000000,0.04369178,-0.04937093,-0.06581576,0.59000000,-18.79000000,0.14000000
379,0,0.33000000,0.01000000,0.94600000,-0.17000000,0.00000000,0.03000000,0.04352226,-0.04937093,-0.06578584,0.59000000,-18.79000000,0.14000000
380,0,0.31900000,0.00800000,0.94400000,-0.47000000,-0.02000000,0.28000000,0.01743843,-0.05048088,-0.05024654,0.59000000,-18.79000000,0.14000000
381,0,0.31900000,0.00800000,0.94300000,0.05000000,-0.18000000,-0.11000000,0.01749436,-0.05068222,-0.05036958,0.59000000,-18.79000000,0.14000000
382,0,0.32300000,0.00700000,0.95000000,-0.21000000,-0.13000000,-0.12000000,0.01727810,-0.05081610,-0.05049316,0.59000000,-18.79000000,0.14000000
383,0,0.32100000,0.00500000,0.94500000,0.00000000,-0.16000000,-0.22000000,0.01727810,-0.05098598,-0.05072675,0.59000000,-18.79000000,0.14000000
384,0,0.32100000,0.01400000,0.94300000,-0.13000000,-0.18000000,-0.07000000,0.01714825,-0.05116577,-0.05079667,0.59000000,-18.79000000,0.14000000
385,0,0.32500000,0.00700000,0.94600000,-0.03000000,0.03000000,0.16000000,0.01711865,-0.05113618,-0.05063884,0.59000000,-18.79000000,0.14000000
386,0,0.32300000,0.00600000,0.94600000,0.18000000,0.20000000,-0.05000000,0.02721421,-0.03991890,-0.05344316,0.59000000,-18.79000000,0.14000000
387,0,0.32500000,0.00900000,0.94800000,0.21000000,0.03000000,0.14000000,0.02743593,-0.03988722,-0.05329534,0.59000000,-18.79000000,0.14000000
388,0,0.32400000,0.01100000,0.94800000,-0.03000000,-0.19000000,0.06000000,0.02740549,-0.04007999,-0.05323447,0.59000000,-18.79000000,0.14000000
389,0,0.32300000,0.01000000,0.94300000,-0.11000000,-0.17000000,0.14000000,0.02729245,-0.04025470,-0.05309059,0.59000000,-18.79000000,0.14000000
390,0,0.32400000,0.00600000,0.94800000,-0.14000000,0.05000000,0.18000000,0.02715187,-0.04020449,-0.05290986,0.59000000,-18.79000000,0.14000000
391,0,0.32100000,0.00600000,0.95400000,0.09000000,-0.13000000,0.00000000,0.02724222,-0.04033499,-0.05290986,0.59000000,-18.79000000,0.14000000
392,0,0.32400000,0.01100000,0.94300000,0.07000000,-0.07000000,-0.06000000,0.03112378,-0.04421655,-0.05623691,0.59000000,-18.79000000,0.14000000
393,0,0.32400000,0.01200000,0.95000000,0.14000000,-0.10000000,-0.06000000,0.03127242,-0.04432273,-0.05630061,0.59000000,-18.79000000,0.14000000
394,0,0.32500000,0.00900000,0.94800000,0.03000000,-0.04000000,-0.06000000,0.03130254,-0.04436288,-0.05636084,0.59000000,-18.79000000,0.14000000
395,0,0.31600000,0.01500000,0.94400000,0.23000000,0.02000000,-0.10000000,0.03152991,-0.04434311,-0.05645970,0.59000000,-18.79000000,0.14000000
396,0,0.32300000,0.00700000,0.94600000,-0.33000000,-0.00000000,0.15000000,0.03120407,-0.04434311,-0.05631159,0.59000000,-18.79000000,0.14000000
397,0,0.32400000,0.00500000,0.94400000,0.06000000,-0.05000000,-0.09000000,0.03126449,-0.04439346,-0.05640222,0.59000000,-18.79000000,0.14000000
398,0,0.32400000,0.01000000,0.94700000,0.17000000,0.02000000,0.26000000,0.04074726,-0.04327784,-0.04189916,0.59000000,-18.79000000,0.15000000
399,0,0.32300000,0.00900000,0.94900000,-0.06000000,0.27000000,0.24000000,0.04068033,-0.04297667,-0.04163146,0.59000000,-18.79000000,0.15000000
400,0,0.32400000,0.01600000,0.94500000,0.26000000,0.24000000,0.03000000,0.04094803,-0.04272957,-0.04160057,0.59000000,-18.79000000,0.15000000
401,0,0.31900000,0.01000000,0.94900000,0.11000000,-0.12000000,0.18000000,0.04106378,-0.04285584,-0.04141117,0.59000000,-18.79000000,0.15000000
402,0,0.32300000,0.00700000,0.94500000,-0.31000000,0.02000000,0.12000000,0.04072538,-0.04283401,-0.04128018,0.59000000,-18.79000000,0.15000000
403,0,0.31700000,0.00700000,0.94900000,0.12000000,0.41000000,0.08000000,0.04085926,-0.04237659,-0.04119092,0.59000000,-18.79000000,0.15000000
404,0,0.31700000,0.00600000,0.95000000,-0.08000000,-0.09000000,0.08000000,0.03638433,-0.04741089,-0.03671599,0.59000000,-18.78000000,0.15000000
405,0,0.32700000,0.00800000,0.95000000,-0.05000000,0.04000000,0.22000000,0.03633249,-0.04736942,-0.03648790,0.59000000,-18.78000000,0.15000000
406,0,0.32600000,0.00900000,0.94000000,0.31000000,-0.03000000,0.01000000,0.03663814,-0.04739900,-0.03647805,0.59000000,-18.78000000,0.15000000
407,0,0.32200000,0.01000000,0.94600000,-0.31000000,-0.06000000,-0.14000000,0.03633316,-0.04745802,-0.03661578,0.59000000,-18.78000000,0.15000000
408,0,0.31900000,0.01100000,0.94800000,-0.22000000,-0.03000000,-0.11000000,0.03611184,-0.04748820,-0.03672644,0.59000000,-18.78000000,0.15000000
409,0,0.32500000,0.00700000,0.94500000,-0.15000000,0.22000000,-0.21000000,0.03595826,-0.04726295,-0.03694145,0.59000000,-18.78000000,0.15000000
410,0,0.32700000,0.01200000,0.94200000,-0.03000000,0.33000000,-0.34000000,0.03429047,-0.02891730,-0.05584303,0.59000000,-18.78000000,0.15000000
411,0,0.32100000,0.01500000,0.94700000,0.31000000,0.11000000,0.19000000,0.03461733,-0.02880132,-0.05564270,0.59000000,-18.78000000,0.15000000
412,0,0.32200000,0.01700000,0.94600000,0.18000000,0.04000000,-0.10000000,0.03479575,-0.02876167,-0.05574182,0.59000000,-18.78000000,0.15000000
413,0,0.32300000,0.01000000,0.94800000,-0.24000000,-0.17000000,0.11000000,0.03455769,-0.02893030,-0.05563271,0.59000000,-18.78000000,0.15000000
414,0,0.31800000,0.00900000,0.95000000,-0.24000000,0.08000000,0.48000000,0.03431619,-0.02884980,-0.05514972,0.59000000,-18.78000000,0.15000000
415,0,0.32500000,0.01100000,0.94800000,0.20000000,-0.08000000,0.06000000,0.03451463,-0.02892917,-0.05509019,0.59000000,-18.78000000,0.15000000
416,0,0.32400000,0.00900000,0.94900000,-0.21000000,-0.04000000,-0.12000000,0.02266754,-0.03118576,-0.06185995,0.59000000,-18.78000000,0.15000000
417,0,0.31500000,0.00500000,0.94600000,-0.12000000,0.09000000,0.16000000,0.02254070,-0.03109063,-0.06169083,0.59000000,-18.78000000,0.15000000
418,0,0.31900000,0.00500000,0.95000000,0.10000000,0.07000000,0.14000000,0.02264046,-0.03102079,-0.06155116,0.59000000,-18.78000000,0.15000000
419,0,0.32300000,0.01200000,0.94700000,-0.34000000,-0.02000000,0.15000000,0.02230256,-0.03104067,-0.06140208,0.59000000,-18.78000000,0.15000000
420,0,0.32500000,0.01300000,0.94500000,-0.25000000,-0.05000000,0.20000000,0.02205619,-0.03108995,-0.06120499,0.59000000,-18.78000000,0.15000000
421,0,0.32400000,0.00700000,0.94600000,0.12000000,0.20000000,-0.24000000,0.02217399,-0.03089361,-0.06144059,0.58000000,-18.78000000,0.15000000
422,0,0.32100000,0.01000000,0.94800000,0.10000000,0.10000000,0.05000000,0.02772679,-0.02534081,-0.05866419,0.58000000,-18.78000000,0.15000000
423,0,0.32200000,0.01100000,0.95100000,-0.14000000,-0.04000000,0.02000000,0.02758231,-0.02538209,-0.05864355,0.58000000,-18.78000000,0.15000000
424,0,0.31700000,0.01300000,0.94400000,0.12000000,0.25000000,0.10000000,0.02770043,-0.02513601,-0.05854512,0.59000000,-18.78000000,0.15000000
425,0,0.32100000,0.01500000,0.94700000,0.23000000,0.30000000,-0.32000000,0.02793257,-0.02483322,-0.05886810,0.59000000,-18.77000000,0.15000000
426,0,0.32200000,0.01100000,0.94400000,-0.13000000,-0.24000000,-0.11000000,0.02780335,-0.02507179,-0.05897745,0.59000000,-18.77000000,0.15000000
427,0,0.32700000,0.00700000,0.94700000,0.06000000,0.05000000,-0.13000000,0.02786278,-0.02502227,-0.05910621,0.59000000,-18.77000000,0.15000000
428,0,0.31900000,0.00300000,0.94700000,-0.11000000,0.09000000,-0.23000000,0.02174976,-0.02002071,-0.07188797,0.59000000,-18.77000000,0.15000000
429,0,0.32400000,0.01100000,0.94900000,0.27000000,-0.01000000,-0.36000000,0.02202807,-0.02003102,-0.07225905,0.59000000,-18.77000000,0.15000000
430,0,0.32200000,0.01000000,0.94900000,-0.12000000,-0.14000000,-0.22000000,0.02190933,-0.02016955,-0.07247675,0.59000000,-18.77000000,0.15000000
431,0,0.32500000,0.01500000,0.94800000,0.07000000,0.25000000,0.30000000,0.02198000,-0.01991716,-0.07217388,0.59000000,-18.77000000,0.15000000
432,0,0.32600000,0.00800000,0.95100000,-0.02000000,-0.12000000,-0.07000000,0.02196026,-0.02003559,-0.07224297,0.59000000,-18.77000000,0.15000000
433,0,0.32500000,0.01400000,0.94900000,0.05000000,-0.27000000,-0.04000000,0.02200951,-0.02030155,-0.07228237,0.59000000,-18.77000000,0.15000000
434,0,0.31800000,0.01000000,0.94800000,-0.11000000,0.06000000,-0.22000000,0.01578929,-0.01690870,-0.08472282,0.59000000,-18.77000000,0.15000000
435,0,0.32000000,0.01200000,0.94600000,0.11000000,0.21000000,-0.39000000,0.01590346,-0.01669073,-0.08512761,0.59000000,-18.77000000,0.15000000
436,0,0.32600000,0.01100000,0.95100000,-0.38000000,-0.01000000,-0.11000000,0.01551991,-0.01670082,-0.08523864,0.58000000,-18.77000000,0.15000000
437,0,0.32200000,0.01100000,0.94900000,0.03000000,-0.20000000,-0.10000000,0.01555084,-0.01690703,-0.08534174,0.59000000,-18.77000000,0.15000000
438,0,0.32400000,0.00900000,0.94800000,-0.27000000,0.11000000,0.03000000,0.01528135,-0.01679723,-0.08531180,0.58000000,-18.77000000,0.15000000
439,0,0.32000000,0.01700000,0.94800000,0.38000000,0.07000000,-0.03000000,0.01565747,-0.01672795,-0.08534149,0.59000000,-18.77000000,0.15000000
440,0,0.32300000,0.01300000,0.94800000,-0.29000000,-0.27000000,-0.10000000,-0.00044884,-0.03172348,-0.09089539,0.59000000,-18.77000000,0.15000000
441,0,0.32500000,0.00700000,0.94700000,-0.18000000,-0.10000000,0.15000000,-0.00063468,-0.03182672,-0.09074052,0.58000000,-18.77000000,0.15000000
442,0,0.32400000,0.01000000,0.94800000,0.50000000,0.14000000,-0.06000000,-0.00013324,-0.03168632,-0.09080070,0.59000000,-18.77000000,0.15000000
443,0,0.31800000,0.00800000,0.94700000,-0.21000000,0.03000000,0.25000000,-0.00034239,-0.03165644,-0.09055170,0.59000000,-18.77000000,0.15000000
444,0,0.32000000,0.00900000,0.94700000,-0.14000000,-0.27000000,0.04000000,-0.00048046,-0.03192271,-0.09051225,0.58000000,-18.77000000,0.15000000
445,0,0.32200000,0.01000000,0.94700000,0.13000000,0.14000000,0.10000000,-0.00035182,-0.03178418,-0.09041330,0.59000000,-18.77000000,0.15000000
446,0,0.32100000,0.01200000,0.94800000,0.22000000,0.14000000,0.03000000,0.01187347,-0.02400445,-0.08874621,0.59000000,-18.77000000,0.15000000
447,0,0.32400000,0.00700000,0.94800000,-0.02000000,-0.06000000,-0.02000000,0.01185248,-0.02406742,-0.08876721,0.59000000,-18.77000000,0.15000000
448,0,0.32400000,0.01600000,0.94500000,-0.09000000,-0.02000000,-0.12000000,0.01175962,-0.02408806,-0.08889102,0.59000000,-18.77000000,0.15000000
449,0,0.31900000,0.00700000,0.95100000,-0.09000000,-0.01000000,-0.15000000,0.01166996,-0.02409802,-0.08904045,0.59000000,-18.77000000,0.15000000
450,0,0.32100000,0.01200000,0.94800000,-0.02000000,-0.04000000,0.06000000,0.01165032,-0.02413732,-0.08898150,0.59000000,-18.77000000,0.15000000
451,0,0.32600000,0.01500000,0.94700000,0.09000000,-0.01000000,0.16000000,0.01173925,-0.02414720,-0.08882341,0.59000000,-18.77000000,0.15000000
452,0,0.32500000,0.00800000,0.94400000,0.25000000,0.05000000,-0.09000000,0.02585127,-0.02132479,-0.09390373,0.59000000,-18.77000000,0.15000000
453,0,0.32400000,0.01200000,0.94300000,-0.00000000,-0.10000000,0.01000000,0.02585127,-0.02142952,-0.09389326,0.59000000,-18.77000000,0.15000000
454,0,0.32700000,0.00900000,0.94500000,-0.10000000,-0.00000000,-0.06000000,0.02575215,-0.02142952,-0.09395274,0.59000000,-18.77000000,0.15000000
455,0,0.32300000,0.00900000,0.95100000,0.23000000,0.07000000,0.05000000,0.02597864,-0.02136058,-0.09390350,0.59000000,-18.77000000,0.15000000
456,0,0.32100000,0.00900000,0.94600000,0.03000000,-0.01000000,-0.17000000,0.02600806,-0.02137039,-0.09407018,0.59000000,-18.77000000,0.15000000
457,0,0.32400000,0.00600000,0.94600000,0.16000000,-0.17000000,0.07000000,0.02616539,-0.02153755,-0.09400134,0.59000000,-18.77000000,0.14000000
458,0,0.32100000,0.00900000,0.94500000,-0.03000000,0.07000000,-0.28000000,0.02449470,-0.01763928,-0.10959445,0.59000000,-18.77000000,0.14000000
459,0,0.31700000,0.01300000,0.94500000,-0.04000000,0.03000000,-0.29000000,0.02445004,-0.01760578,-0.10991827,0.59000000,-18.77000000,0.14000000
460,0,0.32600000,0.01200000,0.94600000,0.09000000,-0.12000000,0.17000000,0.02453998,-0.01772570,-0.10974839,0.59000000,-18.77000000,0.14000000
461,0,0.32000000,0.00700000,0.94800000,-0.18000000,-0.01000000,0.00000000,0.02436242,-0.01773556,-0.10974839,0.59000000,-18.77000000,0.14000000
462,0,0.31900000,0.01100000,0.94700000,-0.02000000,0.10000000,0.06000000,0.02434062,-0.01762657,-0.10968299,0.59000000,-18.77000000,0.14000000
463,0,0.32100000,0.00800000,0.94500000,0.19000000,0.08000000,0.03000000,0.02454539,-0.01754035,-0.10965066,0.59000000,-18.77000000,0.14000000
464,0,0.32000000,0.01100000,0.94300000,-0.25000000,0.16000000,0.34000000,0.01074856,-0.00871038,-0.09088697,0.59000000,-18.77000000,0.14000000
465,0,0.32000000,0.01100000,0.94100000,0.06000000,-0.15000000,0.02000000,0.01081383,-0.00887354,-0.09086521,0.59000000,-18.77000000,0.14000000
466,0,0.32000000,0.00600000,0.94800000,-0.10000000,0.25000000,0.17000000,0.01070970,-0.00861322,-0.09068820,0.59000000,-18.77000000,0.14000000
467,0,0.32000000,0.01600000,0.94700000,0.20000000,-0.21000000,-0.00000000,0.01091557,-0.00882939,-0.09068820,0.59000000,-18.77000000,0.14000000
468,0,0.32400000,0.01000000,0.94900000,0.28000000,0.09000000,0.16000000,0.01120085,-0.00873769,-0.09052518,0.59000000,-18.77000000,0.14000000
469,0,0.32100000,0.00800000,0.94900000,-0.16000000,-0.03000000,0.06000000,0.01104047,-0.00876776,-0.09046503,0.59000000,-18.77000000,0.14000000
470,0,0.32400000,0.01000000,0.94500000,0.12000000,-0.15000000,-0.13000000,0.01781103,-0.01723097,-0.09779981,0.59000000,-18.77000000,0.14000000
471,0,0.32500000,0.01000000,0.94600000,0.15000000,-0.02000000,-0.12000000,0.01797144,-0.01725236,-0.09792814,0.59000000,-18.77000000,0.14000000
472,0,0.32300000,0.00800000,0.94600000,-0.30000000,-0.14000000,0.41000000,0.01767158,-0.01739229,-0.09751833,0.59000000,-18.77000000,0.14000000
473,0,0.32400000,0.00800000,0.94700000,0.14000000,0.07000000,-0.21000000,0.01780951,-0.01732333,-0.09772523,0.59000000,-18.77000000,0.14000000
474,0,0.32200000,0.01000000,0.94500000,-0.06000000,0.02000000,0.03000000,0.01774972,-0.01730340,-0.09769533,0.59000000,-18.77000000,0.15000000
475,0,0.32600000,0.00700000,0.94300000,-0.33000000,0.08000000,-0.03000000,0.01742294,-0.01722418,-0.09772504,0.59000000,-18.78000000,0.15000000
476,0,0.31800000,0.00800000,0.94400000,0.38000000,-0.10000000,0.16000000,0.03853537,-0.02278008,-0.08883560,0.59000000,-18.78000000,0.15000000
477,0,0.32200000,0.01100000,0.94900000,0.09000000,0.02000000,-0.03000000,0.03863322,-0.02275833,-0.08886822,0.59000000,-18.78000000,0.15000000
478,0,0.32100000,0.00800000,0.94600000,0.12000000,-0.16000000,0.11000000,0.03875329,-0.02291842,-0.08875816,0.59000000,-18.78000000,0.15000000
479,0,0.32100000,0.01000000,0.94800000,0.15000000,-0.20000000,0.11000000,0.03890268,-0.02311761,-0.08864860,0.59000000,-18.78000000,0.15000000
480,0,0.32100000,0.01000000,0.94500000,-0.02000000,0.11000000,0.04000000,0.03888201,-0.02300391,-0.08860726,0.59000000,-18.78000000,0.15000000
481,0,0.32100000,0.01200000,0.94900000,-0.11000000,-0.22000000,-0.01000000,0.03877305,-0.02322182,-0.08861716,0.59000000,-18.78000000,0.15000000
482,0,0.31700000,0.01000000,0.94200000,0.04000000,-0.08000000,0.02000000,0.04099394,-0.02766358,-0.08750672,0.59000000,-18.78000000,0.15000000
483,0,0.32100000,0.01300000,0.94900000,0.10000000,-0.00000000,-0.04000000,0.04109733,-0.02766358,-0.08754808,0.60000000,-18.78000000,0.15000000
484,0,0.32300000,0.01500000,0.94700000,-0.09000000,0.03000000,0.01000000,0.04100853,-0.02763398,-0.08753821,0.60000000,-18.78000000,0.15000000
485,0,0.31700000,0.01100000,0.95400000,0.09000000,-0.16000000,0.02000000,0.04109698,-0.02779124,-0.08751855,0.60000000,-18.78000000,0.15000000
486,0,0.32600000,0.00800000,0.94400000,-0.04000000,0.12000000,0.04000000,0.04105694,-0.02767112,-0.08747851,0.59000000,-18.78000000,0.15000000
487,0,0.32600000,0.01400000,0.94200000,0.17000000,-0.09000000,-0.01000000,0.04123420,-0.02776497,-0.08748894,0.59000000,-18.78000000,0.15000000
488,0,0.32600000,0.00900000,0.94200000,-0.27000000,-0.07000000,0.12000000,0.02519603,-0.03192301,-0.08036086,0.59000000,-18.78000000,0.15000000
489,0,0.32000000,0.01200000,0.95300000,0.30000000,0.09000000,-0.16000000,0.02550683,-0.03182977,-0.08052663,0.59000000,-18.78000000,0.14000000
490,0,0.31900000,0.00700000,0.95200000,-0.04000000,0.20000000,0.04000000,0.02546732,-0.03163220,-0.08048711,0.59000000,-18.78000000,0.14000000
491,0,0.32600000,0.01200000,0.94600000,-0.23000000,0.26000000,0.15000000,0.02524055,-0.03137585,-0.08033922,0.59000000,-18.78000000,0.15000000
492,0,0.32100000,0.01400000,0.94600000,0.05000000,0.20000000,-0.33000000,0.02528989,-0.03117846,-0.08066490,0.59000000,-18.78000000,0.14000000
493,0,0.32600000,0.00700000,0.94700000,-0.02000000,-0.02000000,0.24000000,0.02526962,-0.03119874,-0.08042163,0.59000000,-18.78000000,0.14000000
494,0,0.32500000,0.00900000,0.94600000,-0.09000000,0.00000000,-0.04000000,0.02517992,-0.03119874,-0.08046150,0.59000000,-18.78000000,0.14000000
495,0,0.31700000,0.00600000,0.94300000,0.10000000,-0.16000000,-0.09000000,0.03073949,-0.04009405,-0.08546512,0.59000000,-18.78000000,0.15000000
496,0,0.32000000,0.00700000,0.94900000,0.19000000,-0.04000000,0.18000000,0.03094785,-0.04013792,-0.08526773,0.59000000,-18.78000000,0.15000000
497,0,0.32600000,0.00700000,0.94500000,0.14000000,-0.31000000,-0.05000000,0.03109489,-0.04046352,-0.08532025,0.59000000,-18.78000000,0.15000000
498,0,0.32700000,0.01200000,0.94400000,-0.22000000,-0.06000000,-0.01000000,0.03086859,-0.04052524,-0.08533053,0.60000000,-18.78000000,0.15000000
499,0,0.32100000,0.01100000,0.94700000,0.10000000,0.07000000,-0.24000000,0.03096809,-0.04045559,-0.08556934,0.60000000,-18.78000000,0.15000000
500,0,0.32400000,0.01100000,0.94700000,0.06000000,0.02000000,0.04000000,0.03102742,-0.04043581,-0.08552979,0.60000000,-18.78000000,0.14000000
501,0,0.32400000,0.01000000,0.94700000,-0.08000000,-0.30000000,0.16000000,0.02660275,-0.05702834,-0.07668043,0.59000000,-18.78000000,0.15000000
502,0,0.32200000,0.00800000,0.94700000,0.12000000,-0.07000000,-0.09000000,0.02672544,-0.05709992,-0.07677245,0.60000000,-18.78000000,0.15000000
503,0,0.32200000,0.01000000,0.94600000,0.15000000,-0.10000000,0.10000000,0.02687255,-0.05719799,-0.07667438,0.60000000,-18.78000000,0.15000000
504,0,0.32600000,0.00700000,0.94700000,-0.08000000,-0.14000000,-0.12000000,0.02679440,-0.05733475,-0.07679161,0.60000000,-18.78000000,0.15000000
505,0,0.32200000,0.00600000,0.95000000,0.01000000,-0.06000000,0.10000000,0.02680477,-0.05739700,-0.07668786,0.60000000,-18.79000000,0.15000000
506,0,0.32000000,0.01500000,0.94700000,0.20000000,-0.26000000,0.09000000,0.02700640,-0.05765912,-0.07659713,0.60000000,-18.78000000,0.15000000
507,0,0.32200000,0.01000000,0.94700000,-0.03000000,-0.22000000,-0.09000000,0.02531151,-0.07008829,-0.08168179,0.60000000,-18.79000000,0.15000000
508,0,0.32300000,0.01200000,0.94300000,0.01000000,-0.00000000,0.07000000,0.02532174,-0.07008829,-0.08161019,0.60000000,-18.79000000,0.15000000
509,0,0.32000000,0.00800000,0.95000000,0.10000000,0.14000000,-0.02000000,0.02542012,-0.06995056,-0.08162987,0.60000000,-18.78000000,0.15000000
510,0,0.32300000,0.00400000,0.94700000,-0.07000000,0.09000000,-0.17000000,0.02534992,-0.06986030,-0.08180036,0.60000000,-18.78000000,0.15000000
511,0,0.32300000,0.00900000,0.94300000,0.18000000,0.19000000,-0.04000000,0.02553005,-0.06967016,-0.08184039,0.60000000,-18.79000000,0.15000000
512,0,0.31600000,0.01000000,0.95100000,0.10000000,0.21000000,0.17000000,0.02562953,-0.06946125,-0.08167127,0.60000000,-18.79000000,0.15000000
513,0,0.31600000,0.00400000,0.94300000,0.05000000,-0.14000000,-0.05000000,0.02840637,-0.07723641,-0.08444812,0.60000000,-18.78000000,0.15000000
514,0,0.32600000,0.01100000,0.94600000,-0.16000000,-0.07000000,0.09000000,0.02824214,-0.07730826,-0.08435573,0.60000000,-18.79000000,0.15000000
515,0,0.32300000,0.00600000,0.94700000,-0.04000000,-0.01000000,-0.27000000,0.02820276,-0.07731811,-0.08462149,0.59000000,-18.79000000,0.15000000
516,0,0.31900000,0.00900000,0.94800000,-0.10000000,0.01000000,-0.04000000,0.02810321,-0.07730815,-0.08466131,0.59000000,-18.79000000,0.15000000
517,0,0.32400000,0.01200000,0.94400000,0.02000000,-0.20000000,-0.05000000,0.02812304,-0.07750644,-0.08471088,0.59000000,-18.78000000,0.15000000
518,0,0.32300000,0.01100000,0.94800000,-0.07000000,0.01000000,-0.07000000,0.02805423,-0.07749661,-0.08477970,0.59000000,-18.78000000,0.15000000
519,0,0.32100000,0.01400000,0.93600000,0.06000000,0.16000000,-0.07000000,0.03138851,-0.06860518,-0.08866970,0.59000000,-18.79000000,0.15000000
520,0,0.32500000,0.00900000,0.94900000,0.26000000,0.21000000,-0.13000000,0.03165503,-0.06838992,-0.08880296,0.59000000,-18.79000000,0.15000000
521,0,0.32100000,0.00900000,0.94500000,-0.17000000,0.05000000,-0.05000000,0.03148778,-0.06834073,-0.08885215,0.59000000,-18.79000000,0.15000000
522,0,0.32400000,0.01300000,0.94600000,0.03000000,0.07000000,-0.02000000,0.03151783,-0.06827061,-0.08887218,0.59000000,-18.79000000,0.15000000
523,0,0.33000000,0.00500000,0.95000000,0.05000000,0.04000000,-0.30000000,0.03156744,-0.06823092,-0.08916983,0.59000000,-18.79000000,0.15000000
524,0,0.31800000,0.00800000,0.94100000,-0.24000000,-0.13000000,0.03000000,0.03133075,-0.06835913,-0.08914025,0.59000000,-18.79000000,0.14000000
525,0,0.32600000,0.00700000,0.94700000,0.42000000,-0.10000000,0.07000000,0.05513758,-0.07402742,-0.08517244,0.59000000,-18.79000000,0.15000000
526,0,0.32200000,0.01600000,0.94700000,0.22000000,0.04000000,0.16000000,0.05536682,-0.07398574,-0.08500572,0.59000000,-18.79000000,0.15000000
527,0,0.32300000,0.00500000,0.94600000,-0.15000000,-0.08000000,-0.19000000,0.05521649,-0.07406592,-0.08519614,0.59000000,-18.79000000,0.15000000
528,0,0.32600000,0.01000000,0.94200000,0.21000000,-0.03000000,-0.18000000,0.05542459,-0.07409565,-0.08537451,0.59000000,-18.79000000,0.15000000
529,0,0.32000000,0.01600000,0.94500000,0.06000000,-0.01000000,-0.05000000,0.05548358,-0.07410548,-0.08542367,0.59000000,-18.79000000,0.14000000
530,0,0.31900000,0.01200000,0.94300000,-0.17000000,0.03000000,-0.02000000,0.05531593,-0.07407589,-0.08544339,0.59000000,-18.79000000,0.14000000
531,0,0.32200000,0.01200000,0.95200000,0.04000000,-0.22000000,0.15000000,0.05753554,-0.08628377,-0.07711984,0.59000000,-18.79000000,0.14000000
532,0,0.32300000,0.01000000,0.94300000,0.21000000,-0.16000000,-0.06000000,0.05775496,-0.08645095,-0.07718253,0.59000000,-18.79000000,0.14000000
533,0,0.32500000,0.00700000,0.94500000,-0.16000000,-0.11000000,0.20000000,0.05758458,-0.08656808,-0.07696955,0.59000000,-18.79000000,0.14000000
534,0,0.31500000,0.01400000,0.94800000,-0.12000000,0.09000000,0.35000000,0.05746097,-0.08647538,-0.07660903,0.59000000,-18.79000000,0.15000000
535,0,0.32300000,0.01000000,0.94400000,0.10000000,-0.24000000,-0.25000000,0.05756088,-0.08671515,-0.07685880,0.60000000,-18.79000000,0.14000000
536,0,0.32100000,0.01000000,0.94700000,-0.01000000,0.11000000,0.22000000,0.05755087,-0.08660510,-0.07663868,0.60000000,-18.79000000,0.14000000
537,0,0.32700000,0.00900000,0.94300000,-0.13000000,0.10000000,0.00000000,0.05032646,-0.08104786,-0.07663868,0.59000000,-18.79000000,0.14000000
538,0,0.31900000,0.01200000,0.94600000,-0.13000000,0.20000000,0.06000000,0.05019215,-0.08084123,-0.07657669,0.59000000,-18.79000000,0.14000000
539,0,0.32200000,0.01300000,0.94900000,0.11000000,-0.20000000,0.05000000,0.05030255,-0.08104195,-0.07652651,0.59000000,-18.79000000,0.14000000
540,0,0.32300000,0.01100000,0.94600000,0.08000000,0.05000000,0.11000000,0.05038303,-0.08099165,-0.07641585,0.60000000,-18.79000000,0.14000000
541,0,0.32300000,0.01400000,0.94700000,-0.04000000,-0.12000000,-0.08000000,0.05034366,-0.08110976,-0.07649460,0.60000000,-18.79000000,0.14000000
542,0,0.32200000,0.00800000,0.95100000,0.16000000,0.20000000,-0.05000000,0.05050091,-0.08091319,-0.07654374,0.60000000,-18.79000000,0.14000000
543,0,0.32500000,0.00900000,0.94100000,0.12000000,0.11000000,-0.07000000,0.05726933,-0.07470881,-0.08049199,0.60000000,-18.79000000,0.14000000
544,0,0.31800000,0.01500000,0.94800000,0.06000000,0.03000000,-0.01000000,0.05733288,-0.07467703,-0.08050258,0.60000000,-18.79000000,0.14000000
545,0,0.31800000,0.01400000,0.94700000,0.04000000,-0.25000000,-0.10000000,0.05737309,-0.07492835,-0.08060311,0.60000000,-18.79000000,0.14000000
546,0,0.31900000,0.01100000,0.94800000,-0.16000000,-0.17000000,-0.20000000,0.05721465,-0.07509669,-0.08080116,0.60000000,-18.79000000,0.14000000
547,0,0.32000000,0.01100000,0.94400000,-0.12000000,0.04000000,-0.18000000,0.05709594,-0.07505712,-0.08097923,0.60000000,-18.79000000,0.14000000
548,0,0.32800000,0.01200000,0.94400000,-0.36000000,0.05000000,-0.13000000,0.05673352,-0.07500679,-0.08111010,0.60000000,-18.79000000,0.14000000
549,0,0.31900000,0.01000000,0.94500000,0.01000000,0.05000000,0.15000000,0.05728863,-0.07223124,-0.07278347,0.60000000,-18.79000000,0.14000000
550,0,0.32000000,0.00700000,0.94800000,0.40000000,-0.02000000,-0.14000000,0.05771277,-0.07225245,-0.07293192,0.60000000,-18.79000000,0.14000000
551,0,0.33400000,0.00700000,0.94400000,-0.01000000,0.09000000,0.00000000,0.05770276,-0.07216230,-0.07293192,0.60000000,-18.79000000,0.14000000
552,0,0.31600000,0.01000000,0.94200000,0.03000000,0.30000000,0.15000000,0.05773230,-0.07186687,-0.07278421,0.60000000,-18.79000000,0.14000000
553,0,0.32500000,0.00900000,0.94700000,0.21000000,-0.32000000,-0.19000000,0.05794786,-0.07219534,-0.07297924,0.60000000,-18.79000000,0.14000000
554,0,0.32200000,0.00700000,0.94600000,-0.26000000,-0.02000000,0.29000000,0.05766975,-0.07221674,-0.07266904,0.60000000,-18.79000000,0.14000000
555,0,0.32700000,0.01100000,0.94500000,0.12000000,0.15000000,-0.03000000,0.06433815,-0.06388124,-0.07433614,0.60000000,-18.79000000,0.14000000
556,0,0.31700000,0.00600000,0.94700000,0.00000000,-0.01000000,-0.05000000,0.06433815,-0.06389261,-0.07439297,0.60000000,-18.79000000,0.14000000
557,0,0.32700000,0.01700000,0.94800000,-0.05000000,0.15000000,-0.03000000,0.06428643,-0.06373745,-0.07442401,0.60000000,-18.80000000,0.14000000
558,0,0.32300000,0.01300000,0.94700000,-0.04000000,0.01000000,0.25000000,0.06424544,-0.06372720,-0.07416780,0.60000000,-18.79000000,0.14000000
559,0,0.32200000,0.00900000,0.94700000,-0.12000000,0.37000000,0.13000000,0.06412630,-0.06335984,-0.07403872,0.60000000,-18.79000000,0.14000000
560,0,0.32100000,0.01000000,0.94500000,-0.12000000,0.05000000,-0.40000000,0.06396887,-0.06329424,-0.07456348,0.60000000,-18.79000000,0.14000000
561,0,0.32500000,0.00800000,0.94700000,-0.29000000,0.06000000,0.16000000,0.04776431,-0.05994158,-0.06562303,0.60000000,-18.79000000,0.14000000
562,0,0.31800000,0.01000000,0.94700000,-0.18000000,0.10000000,0.11000000,0.04757941,-0.05983886,-0.06551004,0.60000000,-18.79000000,0.14000000
563,0,0.32300000,0.00800000,0.94600000,0.27000000,-0.02000000,0.00000000,0.04784614,-0.05985861,-0.06551004,0.60000000,-18.79000000,0.14000000
564,0,0.32300000,0.01100000,0.94700000,-0.12000000,-0.14000000,0.11000000,0.04772782,-0.05999665,-0.06540158,0.60000000,-18.79000000,0.14000000
565,0,0.32100000,0.01500000,0.94400000,-0.16000000,0.08000000,0.00000000,0.04756709,-0.05991628,-0.06540158,0.60000000,-18.79000000,0.14000000
566,0,0.31300000,0.01400000,0.94700000,-0.23000000,-0.04000000,0.08000000,0.04733643,-0.05995640,-0.06532135,0.60000000,-18.79000000,0.14000000
567,0,0.32100000,0.00900000,0.94600000,-0.08000000,-0.23000000,-0.07000000,0.04288707,-0.07274830,-0.06921454,0.60000000,-18.79000000,0.14000000
568,0,0.32500000,0.01000000,0.94600000,0.10000000,0.17000000,-0.30000000,0.04299711,-0.07256123,-0.06954466,0.60000000,-18.79000000,0.14000000
569,0,0.32100000,0.00800000,0.94500000,-0.06000000,-0.12000000,-0.18000000,0.04293569,-0.07268407,-0.06972891,0.60000000,-18.79000000,0.14000000
570,0,0.32100000,0.01500000,0.94600000,0.22000000,0.22000000,0.05000000,0.04315586,-0.07246390,-0.06967888,0.60000000,-18.79000000,0.14000000
571,0,0.31900000,0.01500000,0.94500000,-0.06000000,0.09000000,0.22000000,0.04309543,-0.07237326,-0.06945730,0.60000000,-18.80000000,0.14000000
572,0,0.32400000,0.00700000,0.94900000,-0.20000000,-0.11000000,-0.19000000,0.04289475,-0.07248363,-0.06964794,0.60000000,-18.79000000,0.14000000
573,0,0.32300000,0.00300000,0.94600000,0.06000000,0.09000000,0.06000000,0.04623064,-0.06747980,-0.06631205,0.60000000,-18.79000000,0.14000000
574,0,0.32300000,0.01000000,0.94800000,-0.16000000,-0.06000000,0.07000000,0.04606469,-0.06754203,-0.06623944,0.60000000,-18.79000000,0.14000000
575,0,0.32400000,0.01500000,0.95000000,-0.02000000,0.32000000,-0.10000000,0.04604485,-0.06722469,-0.06633861,0.60000000,-18.79000000,0.14000000
576,0,0.32100000,0.01100000,0.94900000,-0.01000000,0.14000000,0.02000000,0.04603502,-0.06708699,-0.06631894,0.60000000,-18.80000000,0.14000000
577,0,0.32800000,0.00900000,0.94700000,-0.16000000,0.15000000,0.06000000,0.04587577,-0.06693770,-0.06625922,0.60000000,-18.80000000,0.14000000
578,0,0.31900000,0.00900000,0.94500000,0.05000000,-0.03000000,-0.02000000,0.04592544,-0.06696750,-0.06627909,0.60000000,-18.80000000,0.14000000
579,0,0.31800000,0.01100000,0.94500000,0.26000000,-0.17000000,-0.07000000,0.06056959,-0.07654252,-0.07022175,0.60000000,-18.80000000,0.14000000
580,0,0.32200000,0.00600000,0.95000000,-0.00000000,-0.09000000,-0.03000000,0.06056959,-0.07663488,-0.07025253,0.60000000,-18.80000000,0.14000000
581,0,0.32700000,0.00600000,0.94500000,0.35000000,0.27000000,-0.13000000,0.06091459,-0.07636873,-0.07038068,0.60000000,-18.80000000,0.14000000
582,0,0.32600000,0.00900000,0.95000000,-0.04000000,0.09000000,-0.20000000,0.06086840,-0.07626481,-0.07061163,0.60000000,-18.79000000,0.14000000
583,0,0.31900000,0.01200000,0.94600000,0.06000000,0.06000000,0.09000000,0.06092907,-0.07620413,-0.07052062,0.60000000,-18.79000000,0.14000000
584,0,0.32500000,0.01200000,0.94800000,-0.42000000,-0.09000000,-0.17000000,0.06050906,-0.07629413,-0.07069062,0.60000000,-18.79000000,0.14000000
585,0,0.31900000,0.01000000,0.94600000,0.02000000,-0.18000000,-0.03000000,0.06161717,-0.08626708,-0.07235278,0.60000000,-18.79000000,0.14000000
586,0,0.32400000,0.00600000,0.94700000,0.20000000,-0.19000000,0.17000000,0.06182738,-0.08646678,-0.07217410,0.59000000,-18.80000000,0.14000000
587,0,0.32300000,0.01000000,0.94400000,0.18000000,0.09000000,-0.04000000,0.06200712,-0.08637690,-0.07221405,0.59000000,-18.80000000,0.14000000
588,0,0.31800000,0.00500000,0.94600000,-0.11000000,0.28000000,0.07000000,0.06189694,-0.08609643,-0.07214393,0.59000000,-18.79000000,0.14000000
589,0,0.32100000,0.00900000,0.94300000,-0.05000000,-0.19000000,-0.12000000,0.06184729,-0.08628507,-0.07226307,0.59000000,-18.79000000,0.14000000
590,0,0.32100000,0.00900000,0.94500000,-0.06000000,-0.14000000,0.12000000,0.06178768,-0.08642418,-0.07214384,0.59000000,-18.80000000,0.14000000
591,0,0.32100000,0.00900000,0.94700000,-0.03000000,0.21000000,-0.03000000,0.06011555,-0.07471928,-0.07381597,0.59000000,-18.80000000,0.14000000
592,0,0.32500000,0.01000000,0.94800000,0.03000000,-0.21000000,0.10000000,0.06014639,-0.07493515,-0.07371318,0.59000000,-18.80000000,0.14000000
593,0,0.32300000,0.00600000,0.94400000,0.48000000,-0.19000000,0.19000000,0.06061793,-0.07512180,-0.07352652,0.59000000,-18.80000000,0.14000000
594,0,0.31600000,0.01100000,0.95000000,-0.12000000,-0.36000000,0.03000000,0.06049693,-0.07548481,-0.07349627,0.59000000,-18.80000000,0.14000000
595,0,0.33000000,0.00600000,0.94300000,-0.42000000,0.37000000,0.05000000,0.06007922,-0.07511683,-0.07344654,0.59000000,-18.81000000,0.14000000
596,0,0.31900000,0.00800000,0.94300000,0.55000000,0.14000000,0.07000000,0.06062569,-0.07497773,-0.07337699,0.59000000,-18.81000000,0.14000000
597,0,0.32300000,0.00700000,0.94600000,0.11000000,-0.21000000,0.01000000,0.06682061,-0.08680439,-0.07281382,0.59000000,-18.81000000,0.14000000
598,0,0.31800000,0.00700000,0.94800000,-0.36000000,-0.14000000,0.03000000,0.06645253,-0.08694753,-0.07278315,0.59000000,-18.80000000,0.14000000
599,0,0.32400000,0.00900000,0.94700000,0.46000000,-0.27000000,-0.21000000,0.06691057,-0.08721638,-0.07299225,0.59000000,-18.81000000,0.14000000
600,0,0.31900000,0.00700000,0.94600000,0.27000000,0.11000000,0.28000000,0.06717659,-0.08710800,-0.07271638,0.59000000,-18.81000000,0.14000000
601,0,0.33000000,0.00700000,0.94800000,-0.44000000,0.18000000,0.11000000,0.06674549,-0.08693165,-0.07260861,0.59000000,-18.80000000,0.14000000
602,0,0.31600000,0.01000000,0.94200000,-0.18000000,0.18000000,0.09000000,0.06656394,-0.08675010,-0.07251783,0.59000000,-18.80000000,0.14000000
603,0,0.32000000,0.00400000,0.94900000,0.12000000,0.17000000,-0.25000000,0.07323403,-0.07730081,-0.08641385,0.59000000,-18.80000000,0.14000000
604,0,0.32600000,0.01200000,0.95300000,-0.23000000,-0.13000000,-0.04000000,0.07299843,-0.07743397,-0.08645482,0.59000000,-18.80000000,0.14000000
605,0,0.32300000,0.01000000,0.94200000,0.11000000,0.09000000,-0.06000000,0.07310990,-0.07734277,-0.08651562,0.59000000,-18.80000000,0.14000000
606,0,0.32000000,0.01100000,0.95000000,0.23000000,0.15000000,-0.05000000,0.07334018,-0.07719258,-0.08656568,0.59000000,-18.80000000,0.14000000
607,0,0.32000000,0.01100000,0.94400000,-0.17000000,0.18000000,-0.08000000,0.07317322,-0.07701580,-0.08664426,0.59000000,-18.80000000,0.14000000
608,0,0.32200000,0.00800000,0.94300000,-0.04000000,0.08000000,0.05000000,0.07313382,-0.07693700,-0.08659501,0.59000000,-18.80000000,0.14000000
609,0,0.32300000,0.01000000,0.94700000,-0.37000000,-0.21000000,0.27000000,0.05249026,-0.08865361,-0.07153079,0.59000000,-18.80000000,0.14000000
610,0,0.31700000,0.00600000,0.94600000,0.44000000,-0.10000000,-0.22000000,0.05295892,-0.08876012,-0.07176512,0.59000000,-18.80000000,0.14000000
611,0,0.31900000,0.00900000,0.94700000,-0.14000000,-0.13000000,-0.22000000,0.05281621,-0.08889263,-0.07198937,0.59000000,-18.80000000,0.14000000
612,0,0.32000000,0.00800000,0.94300000,-0.35000000,0.03000000,0.18000000,0.05246703,-0.08886271,-0.07180980,0.59000000,-18.80000000,0.14000000
613,0,0.31800000,0.00800000,0.94400000,0.36000000,-0.03000000,-0.19000000,0.05282636,-0.08889265,-0.07199944,0.59000000,-18.80000000,0.14000000
614,0,0.32300000,0.00700000,0.94900000,-0.02000000,0.07000000,0.11000000,0.05280659,-0.08882346,-0.07189072,0.59000000,-18.80000000,0.14000000
615,0,0.32300000,0.01000000,0.94800000,-0.11000000,0.33000000,-0.04000000,0.05269079,-0.08847607,-0.07193283,0.59000000,-18.80000000,0.14000000
616,0,0.32000000,0.01200000,0.94500000,0.22000000,0.06000000,0.09000000,0.06570648,-0.08492633,-0.06660823,0.59000000,-18.80000000,0.14000000
617,0,0.31800000,0.00700000,0.94900000,-0.18000000,0.02000000,0.12000000,0.06551742,-0.08490533,-0.06648219,0.59000000,-18.80000000,0.14000000
618,0,0.32100000,0.00800000,0.94500000,0.04000000,0.52000000,0.24000000,0.06555699,-0.08439101,-0.06624481,0.59000000,-18.80000000,0.14000000
619,0,0.31900000,0.01100000,0.94400000,-0.06000000,-0.01000000,-0.15000000,0.06549834,-0.08440079,-0.06639142,0.59000000,-18.80000000,0.14000000
620,0,0.32100000,0.01300000,0.95000000,0.07000000,-0.08000000,0.04000000,0.06556921,-0.08448178,-0.06635092,0.59000000,-18.80000000,0.14000000
621,0,0.32100000,0.00900000,0.94700000,0.04000000,-0.13000000,-0.07000000,0.06560895,-0.08461092,-0.06642046,0.59000000,-18.80000000,0.14000000
622,0,0.32200000,0.00900000,0.94500000,-0.22000000,-0.08000000,-0.16000000,0.05339199,-0.08905345,-0.07530551,0.59000000,-18.80000000,0.14000000
623,0,0.32400000,0.01200000,0.94600000,-0.10000000,-0.26000000,-0.00000000,0.05328524,-0.08933100,-0.07530551,0.59000000,-18.80000000,0.14000000
624,0,0.32300000,0.00900000,0.95400000,0.02000000,-0.11000000,0.02000000,0.05330518,-0.08944063,-0.07528558,0.59000000,-18.80000000,0.14000000
625,0,0.31900000,0.01000000,0.94300000,-0.15000000,0.18000000,0.03000000,0.05315535,-0.08926084,-0.07525562,0.58000000,-18.80000000,0.14000000
626,0,0.32600000,0.00900000,0.94400000,0.22000000,-0.09000000,-0.06000000,0.05337200,-0.08934947,-0.07531470,0.58000000,-18.80000000,0.14000000
627,0,0.32600000,0.01000000,0.94900000,0.15000000,0.04000000,-0.03000000,0.05351957,-0.08931012,-0.07534422,0.59000000,-18.80000000,0.14000000
628,0,0.32100000,0.00800000,0.94500000,-0.40000000,0.06000000,0.06000000,0.03122091,-0.08596532,-0.07199942,0.59000000,-18.79000000,0.14000000
629,0,0.31800000,0.00700000,0.94600000,0.18000000,-0.00000000,-0.16000000,0.03141031,-0.08596532,-0.07216778,0.59000000,-18.79000000,0.14000000
630,0,0.32200000,0.00500000,0.94800000,0.07000000,0.16000000,0.10000000,0.03148078,-0.08580425,-0.07206710,0.59000000,-18.79000000,0.14000000
631,0,0.31900000,0.00500000,0.94800000,0.23000000,0.27000000,0.16000000,0.03170882,-0.08553655,-0.07190847,0.59000000,-18.79000000,0.14000000
632,0,0.32800000,0.01300000,0.94700000,0.00000000,-0.02000000,0.01000000,0.03170882,-0.08555636,-0.07189857,0.59000000,-18.79000000,0.14000000
633,0,0.32600000,0.01200000,0.94700000,-0.40000000,0.03000000,-0.06000000,0.03131167,-0.08552657,-0.07195814,0.59000000,-18.79000000,0.14000000
634,0,0.32400000,0.00700000,0.94500000,0.15000000,0.15000000,0.13000000,0.03976339,-0.07707485,-0.06463331,0.58000000,-18.79000000,0.14000000
635,0,0.32300000,0.00900000,0.94500000,-0.04000000,0.05000000,0.13000000,0.03972192,-0.07702301,-0.06449854,0.58000000,-18.79000000,0.14000000
636,0,0.31900000,0.00600000,0.94400000,-0.24000000,-0.36000000,-0.12000000,0.03948312,-0.07738122,-0.06461794,0.58000000,-18.79000000,0.15000000
637,0,0.32200000,0.01100000,0.94500000,0.19000000,-0.06000000,-0.26000000,0.03967204,-0.07744088,-0.06487646,0.58000000,-18.79000000,0.14000000
638,0,0.32200000,0.01800000,0.95000000,0.03000000,-0.20000000,0.20000000,0.03970165,-0.07763831,-0.06467903,0.58000000,-18.80000000,0.14000000
639,0,0.32000000,0.01400000,0.94200000,0.14000000,0.24000000,-0.24000000,0.03984379,-0.07739464,-0.06492270,0.59000000,-18.80000000,0.14000000
640,0,0.32300000,0.01000000,0.94800000,0.03000000,-0.19000000,0.26000000,0.04150885,-0.08793998,-0.05049223,0.58000000,-18.80000000,0.14000000
641,0,0.32000000,0.00900000,0.94700000,-0.06000000,0.09000000,0.09000000,0.04144369,-0.08784225,-0.05039450,0.58000000,-18.80000000,0.14000000
642,0,0.32700000,0.00400000,0.94800000,0.15000000,-0.06000000,-0.09000000,0.04160475,-0.08790667,-0.05049113,0.58000000,-18.79000000,0.15000000
643,0,0.32500000,0.00800000,0.94600000,-0.11000000,-0.15000000,-0.00000000,0.04148722,-0.08806694,-0.05049113,0.59000000,-18.80000000,0.14000000
644,0,0.31700000,0.01300000,0.94700000,0.01000000,0.07000000,0.27000000,0.04149760,-0.08799429,-0.05021089,0.59000000,-18.80000000,0.14000000
645,0,0.31900000,0.01000000,0.94700000,0.22000000,-0.07000000,-0.07000000,0.04172678,-0.08806721,-0.05028381,0.59000000,-18.80000000,0.15000000
646,0,0.32600000,0.01100000,0.94700000,-0.16000000,-0.10000000,0.24000000,0.03285130,-0.09361439,-0.03697059,0.59000000,-18.80000000,0.15000000
647,0,0.32100000,0.00500000,0.94300000,0.04000000,0.06000000,-0.08000000,0.03289291,-0.09355197,-0.03705382,0.59000000,-18.80000000,0.15000000
648,0,0.32500000,0.01600000,0.94400000,-0.05000000,-0.16000000,-0.12000000,0.03284195,-0.09371506,-0.03717614,0.59000000,-18.80000000,0.15000000
649,0,0.32200000,0.01000000,0.94200000,0.33000000,0.07000000,0.14000000,0.03318518,-0.09364226,-0.03703053,0.59000000,-18.80000000,0.15000000
650,0,0.32300000,0.00800000,0.94900000,0.10000000,0.13000000,0.14000000,0.03328933,-0.09350686,-0.03688471,0.59000000,-18.80000000,0.15000000
651,0,0.32100000,0.01200000,0.94300000,-0.16000000,0.03000000,0.27000000,0.03312410,-0.09347588,-0.03660589,0.59000000,-18.80000000,0.15000000
652,0,0.32100000,0.00900000,0.95000000,-0.06000000,0.21000000,-0.40000000,0.02975069,-0.08166894,-0.05909528,0.59000000,-18.80000000,0.15000000
653,0,0.32200000,0.01200000,0.94600000,0.05000000,-0.24000000,0.06000000,0.02980325,-0.08192125,-0.05903221,0.59000000,-18.80000000,0.15000000
654,0,0.32300000,0.00700000,0.94600000,0.18000000,-0.11000000,-0.25000000,0.02998042,-0.08202953,-0.05927828,0.59000000,-18.80000000,0.15000000
655,0,0.31900000,0.00800000,0.94700000,0.27000000,0.06000000,-0.03000000,0.03024612,-0.08197048,-0.05930780,0.59000000,-18.80000000,0.15000000
656,0,0.32200000,0.01000000,0.94300000,0.01000000,-0.07000000,0.07000000,0.03025610,-0.08204035,-0.05923793,0.59000000,-18.80000000,0.15000000
657,0,0.32100000,0.00900000,0.94900000,0.15000000,-0.10000000,0.16000000,0.03040471,-0.08213942,-0.05907942,0.59000000,-18.80000000,0.15000000
658,0,0.32500000,0.00600000,0.94600000,0.04000000,-0.36000000,-0.03000000,0.03264126,-0.10226839,-0.06075683,0.59000000,-18.80000000,0.15000000
659,0,0.32100000,0.01000000,0.94300000,0.04000000,-0.00000000,0.03000000,0.03270182,-0.10226839,-0.06071141,0.59000000,-18.80000000,0.15000000
660,0,0.32500000,0.01300000,0.94500000,-0.14000000,-0.27000000,-0.21000000,0.03250881,-0.10264062,-0.06100092,0.59000000,-18.80000000,0.15000000
661,0,0.32000000,0.00700000,0.94900000,-0.21000000,-0.08000000,0.19000000,0.03221920,-0.10275095,-0.06073889,0.59000000,-18.80000000,0.15000000
662,0,0.32500000,0.01200000,0.94500000,0.50000000,-0.20000000,-0.12000000,0.03289290,-0.10302043,-0.06090058,0.59000000,-18.80000000,0.15000000
663,0,0.32100000,0.00900000,0.95100000,-0.25000000,0.14000000,0.32000000,0.03254842,-0.10282752,-0.06045964,0.59000000,-18.80000000,0.15000000
664,0,0.32900000,0.01100000,0.94100000,0.18000000,-0.06000000,-0.33000000,0.04219980,-0.10604465,-0.07815384,0.59000000,-18.81000000,0.15000000
665,0,0.32400000,0.00600000,0.94800000,0.01000000,-0.05000000,0.10000000,0.04221333,-0.10611228,-0.07801857,0.59000000,-18.81000000,0.15000000
666,0,0.32300000,0.00900000,0.94400000,-0.03000000,-0.03000000,0.21000000,0.04217574,-0.10614987,-0.07775545,0.59000000,-18.81000000,0.15000000
667,0,0.32700000,0.01300000,0.95300000,-0.31000000,0.17000000,-0.11000000,0.04178169,-0.10593378,-0.07789527,0.59000000,-18.81000000,0.15000000
668,0,0.31900000,0.00600000,0.94600000,-0.19000000,0.18000000,-0.04000000,0.04154498,-0.10570953,-0.07794510,0.59000000,-18.81000000,0.15000000
669,0,0.32200000,0.01500000,0.94800000,0.04000000,0.08000000,0.20000000,0.04160187,-0.10559575,-0.07766065,0.59000000,-18.81000000,0.15000000
670,0,0.32200000,0.00500000,0.94600000,0.28000000,0.14000000,0.17000000,0.05693376,-0.09792980,-0.06835200,0.59000000,-18.81000000,0.15000000
671,0,0.32700000,0.00900000,0.94500000,-0.16000000,-0.05000000,0.09000000,0.05671448,-0.09799833,-0.06822865,0.59000000,-18.81000000,0.15000000
672,0,0.32000000,0.01100000,0.94800000,0.16000000,0.03000000,0.08000000,0.05691713,-0.09796033,-0.06812733,0.59000000,-18.80000000,0.15000000
673,0,0.32600000,0.01400000,0.94600000,0.13000000,-0.11000000,0.21000000,0.05707977,-0.09809795,-0.06786460,0.59000000,-18.80000000,0.15000000
674,0,0.32500000,0.00900000,0.94500000,0.10000000,-0.05000000,0.15000000,0.05720440,-0.09816027,-0.06767765,0.59000000,-18.81000000,0.15000000
675,0,0.31800000,0.01200000,0.94400000,-0.10000000,0.06000000,0.30000000,0.05707930,-0.09808520,-0.06730233,0.59000000,-18.81000000,0.15000000
676,0,0.32000000,0.00900000,0.94800000,-0.12000000,-0.03000000,-0.11000000,0.05058344,-0.09970917,-0.07325686,0.59000000,-18.80000000,0.15000000
677,0,0.32200000,0.00800000,0.94900000,-0.07000000,0.31000000,0.26000000,0.05048325,-0.09926545,-0.07288471,0.59000000,-18.80000000,0.15000000
678,0,0.32000000,0.01000000,0.94900000,0.12000000,0.00000000,0.08000000,0.05065601,-0.09926545,-0.07276954,0.59000000,-18.80000000,0.15000000
679,0,0.32200000,0.01000000,0.94700000,0.02000000,0.18000000,0.13000000,0.05068419,-0.09901189,-0.07258641,0.59000000,-18.80000000,0.15000000
680,0,0.32000000,0.00800000,0.95000000,-0.15000000,-0.09000000,0.09000000,0.05048461,-0.09913164,-0.07246666,0.59000000,-18.80000000,0.15000000
681,0,0.31900000,0.00500000,0.94300000,0.15000000,0.11000000,-0.12000000,0.05069399,-0.09897810,-0.07263416,0.59000000,-18.80000000,0.15000000
682,0,0.32000000,0.00500000,0.94400000,0.08000000,0.12000000,0.14000000,0.05505627,-0.09243467,-0.06500016,0.59000000,-18.80000000,0.15000000
683,0,0.32300000,0.00900000,0.94900000,0.06000000,0.03000000,-0.17000000,0.05513912,-0.09239324,-0.06523489,0.59000000,-18.80000000,0.15000000
684,0,0.32500000,0.00800000,0.94700000,-0.30000000,-0.08000000,0.05000000,0.05469320,-0.09251216,-0.06516057,0.59000000,-18.80000000,0.15000000
685,0,0.32300000,0.01100000,0.94600000,0.15000000,-0.18000000,-0.07000000,0.05489102,-0.09274954,-0.06525289,0.59000000,-18.80000000,0.15000000
686,0,0.31800000,0.01000000,0.95200000,-0.08000000,-0.34000000,-0.01000000,0.05478776,-0.09318836,-0.06526580,0.59000000,-18.80000000,0.15000000
687,0,0.32500000,0.00900000,0.94900000,-0.02000000,-0.14000000,0.22000000,0.05476095,-0.09337607,-0.06497083,0.59000000,-18.80000000,0.15000000
688,0,0.32200000,0.00900000,0.95000000,-0.28000000,-0.26000000,-0.10000000,0.03967159,-0.10738761,-0.07035989,0.59000000,-18.80000000,0.15000000
689,0,0.32100000,0.01100000,0.95000000,-0.11000000,0.04000000,-0.16000000,0.03950651,-0.10732759,-0.07060001,0.59000000,-18.80000000,0.15000000
690,0,0.32100000,0.01300000,0.95000000,-0.11000000,0.09000000,0.07000000,0.03935318,-0.10720214,-0.07050243,0.59000000,-18.80000000,0.15000000
691,0,0.32600000,0.00400000,0.94700000,-0.09000000,0.03000000,0.21000000,0.03922805,-0.10716043,-0.07021046,0.59000000,-18.80000000,0.15000000
692,0,0.31700000,0.01100000,0.94400000,-0.01000000,-0.24000000,0.08000000,0.03921401,-0.10749759,-0.07009808,0.59000000,-18.80000000,0.15000000
693,0,0.32100000,0.00800000,0.94400000,0.15000000,-0.16000000,-0.14000000,0.03942549,-0.10772317,-0.07029546,0.59000000,-18.80000000,0.15000000
694,0,0.32200000,0.01300000,0.94300000,0.06000000,0.18000000,0.02000000,0.04262972,-0.09811046,-0.06922738,0.59000000,-18.80000000,0.15000000
695,0,0.32400000,0.00800000,0.94500000,0.29000000,-0.10000000,0.01000000,0.04303949,-0.09825176,-0.06921325,0.59000000,-18.80000000,0.15000000
696,0,0.32400000,0.01100000,0.94800000,-0.06000000,0.09000000,0.03000000,0.04296212,-0.09813571,-0.06917456,0.59000000,-18.80000000,0.15000000
697,0,0.32400000,0.00800000,0.94600000,-0.04000000,-0.02000000,0.07000000,0.04290800,-0.09816276,-0.06907986,0.59000000,-18.80000000,0.15000000
698,0,0.32400000,0.00600000,0.94700000,0.18000000,-0.02000000,-0.01000000,0.04315324,-0.09819001,-0.06909349,0.59000000,-18.80000000,0.15000000
699,0,0.32000000,0.00700000,0.94400000,0.09000000,-0.06000000,0.18000000,0.04329113,-0.09828194,-0.06881769,0.59000000,-18.80000000,0.15000000
700,0,0.32500000,0.00900000,0.94400000,-0.06000000,-0.16000000,0.02000000,0.04002361,-0.10699534,-0.06772852,0.59000000,-18.80000000,0.15000000
701,0,0.32100000,0.01000000,0.94700000,-0.19000000,-0.02000000,0.22000000,0.03976131,-0.10702295,-0.06742480,0.59000000,-18.80000000,0.15000000
702,0,0.32000000,0.01000000,0.94600000,0.21000000,-0.06000000,0.11000000,0.04003580,-0.10710138,-0.06728102,0.59000000,-18.80000000,0.15000000
703,0,0.32400000,0.01000000,0.94300000,0.07000000,-0.03000000,-0.18000000,0.04012680,-0.10714037,-0.06751501,0.59000000,-18.80000000,0.15000000
704,0,0.32300000,0.01000000,0.94600000,-0.06000000,0.01000000,0.18000000,0.04004892,-0.10712739,-0.06728136,0.59000000,-18.80000000,0.15000000
705,0,0.32300000,0.01100000,0.94700000,0.04000000,-0.03000000,0.18000000,0.04010375,-0.10716852,-0.06703462,0.59000000,-18.80000000,0.15000000
706,0,0.32000000,0.00900000,0.94200000,-0.18000000,-0.05000000,0.03000000,0.03038486,-0.10986821,-0.06541481,0.59000000,-18.80000000,0.15000000
707,0,0.32700000,0.01100000,0.95000000,-0.00000000,0.07000000,-0.24000000,0.03038486,-0.10978532,-0.06569899,0.59000000,-18.80000000,0.15000000
708,0,0.31900000,0.01000000,0.94700000,0.07000000,-0.10000000,0.04000000,0.03046368,-0.10989791,-0.06565395,0.59000000,-18.80000000,0.15000000
709,0,0.32100000,0.00600000,0.94900000,-0.28000000,0.09000000,-0.09000000,0.03012519,-0.10978911,-0.06576275,0.59000000,-18.80000000,0.15000000
710,0,0.32100000,0.00900000,0.94500000,0.08000000,0.14000000,0.16000000,0.03021522,-0.10963155,-0.06558268,0.59000000,-18.80000000,0.15000000
711,0,0.31700000,0.01000000,0.94300000,0.13000000,-0.17000000,0.02000000,0.03035942,-0.10982012,-0.06556050,0.59000000,-18.80000000,0.15000000
712,0,0.32100000,0.01700000,0.94600000,-0.04000000,-0.16000000,-0.12000000,0.02816711,-0.11858936,-0.07213743,0.59000000,-18.80000000,0.15000000
713,0,0.32300000,0.00700000,0.94900000,-0.00000000,0.09000000,-0.10000000,0.02816711,-0.11848897,-0.07224897,0.59000000,-18.80000000,0.15000000
714,0,0.32800000,0.00800000,0.95000000,-0.23000000,0.30000000,0.07000000,0.02793436,-0.11818539,-0.07217814,0.59000000,-18.80000000,0.15000000
715,0,0.32400000,0.00900000,0.94600000,-0.07000000,-0.03000000,0.07000000,0.02786376,-0.11821565,-0.07210753,0.59000000,-18.80000000,0.15000000
716,0,0.32400000,0.01200000,0.94500000,-0.00000000,-0.18000000,0.05000000,0.02786376,-0.11839475,-0.07205778,0.59000000,-18.80000000,0.15000000
717,0,0.31900000,0.00800000,0.94600000,0.10000000,-0.05000000,0.11000000,0.02796407,-0.11844491,-0.07194744,0.59000000,-18.80000000,0.15000000
718,0,0.32800000,0.01200000,0.94900000,-0.23000000,-0.10000000,0.05000000,0.01502209,-0.12407186,-0.06913396,0.59000000,-18.80000000,0.15000000
719,0,0.32200000,0.00900000,0.94700000,0.01000000,-0.10000000,-0.17000000,0.01503232,-0.12417417,-0.06930790,0.59000000,-18.80000000,0.15000000
720,0,0.32600000,0.01000000,0.95000000,-0.04000000,0.05000000,-0.17000000,0.01499291,-0.12412491,-0.06947539,0.59000000,-18.80000000,0.15000000
721,0,0.31800000,0.00700000,0.94400000,-0.00000000,0.08000000,-0.08000000,0.01499291,-0.12404625,-0.06955406,0.59000000,-18.80000000,0.15000000
722,0,0.32100000,0.01000000,0.94500000,-0.09000000,0.09000000,-0.10000000,0.01490314,-0.12395648,-0.06965380,0.59000000,-18.80000000,0.15000000
723,0,0.32300000,0.01100000,0.94400000,-0.18000000,0.13000000,-0.21000000,0.01472494,-0.12382778,-0.06986170,0.59000000,-18.80000000,0.15000000
724,0,0.32300000,0.01000000,0.94700000,0.10000000,0.23000000,-0.11000000,0.02028206,-0.11104640,-0.07597453,0.59000000,-18.80000000,0.15000000
725,0,0.32500000,0.01100000,0.94500000,0.01000000,0.07000000,0.41000000,0.02029300,-0.11096976,-0.07552561,0.59000000,-18.80000000,0.15000000
726,0,0.32000000,0.01000000,0.94500000,0.02000000,0.14000000,0.11000000,0.02031324,-0.11082812,-0.07541433,0.59000000,-18.80000000,0.15000000
727,0,0.32000000,0.00800000,0.94600000,0.00000000,0.08000000,0.02000000,0.02031324,-0.11074856,-0.07539443,0.59000000,-18.80000000,0.15000000
728,0,0.31900000,0.01300000,0.94300000,-0.00000000,0.06000000,-0.07000000,0.02031324,-0.11068827,-0.07546477,0.59000000,-18.80000000,0.15000000
729,0,0.32300000,0.01500000,0.94700000,0.01000000,0.13000000,-0.10000000,0.02032322,-0.11055857,-0.07556454,0.59000000,-18.80000000,0.15000000
730,0,0.32400000,0.01000000,0.94400000,-0.06000000,-0.06000000,-0.13000000,0.01699417,-0.11388762,-0.08277748,0.59000000,-18.80000000,0.15000000
731,0,0.32500000,0.00500000,0.94700000,-0.18000000,0.18000000,-0.19000000,0.01680592,-0.11369938,-0.08297618,0.59000000,-18.80000000,0.15000000
732,0,0.32000000,0.00900000,0.94800000,-0.05000000,-0.05000000,0.08000000,0.01675599,-0.11374931,-0.08289629,0.59000000,-18.80000000,0.15000000
733,0,0.31800000,0.00600000,0.94500000,0.02000000,-0.19000000,-0.17000000,0.01677613,-0.11394063,-0.08306747,0.59000000,-18.80000000,0.15000000
734,0,0.32400000,0.01100000,0.94500000,-0.10000000,-0.31000000,-0.01000000,0.01667567,-0.11425204,-0.08307752,0.59000000,-18.80000000,0.15000000
735,0,0.32100000,0.00900000,0.94600000,0.26000000,-0.31000000,0.12000000,0.01693556,-0.11456190,-0.08295757,0.59000000,-18.80000000,0.15000000
736,0,0.32600000,0.01100000,0.94600000,-0.15000000,-0.00000000,-0.15000000,0.00813575,-0.11456190,-0.09175738,0.59000000,-18.80000000,0.15000000
737,0,0.32500000,0.00500000,0.94700000,0.01000000,0.09000000,-0.10000000,0.00814638,-0.11446626,-0.09186365,0.59000000,-18.80000000,0.14000000
738,0,0.32400000,0.00800000,0.95200000,0.23000000,-0.06000000,-0.06000000,0.00837562,-0.11452606,-0.09192345,0.59000000,-18.80000000,0.14000000
739,0,0.32200000,0.00700000,0.94400000,0.13000000,0.17000000,-0.14000000,0.00850404,-0.11435812,-0.09206175,0.59000000,-18.80000000,0.14000000
740,0,0.32000000,0.01300000,0.94300000,-0.05000000,0.01000000,-0.23000000,0.00845455,-0.11434822,-0.09228940,0.59000000,-18.80000000,0.14000000
741,0,0.32700000,0.01300000,0.94800000,0.18000000,0.03000000,-0.09000000,0.00863417,-0.11431829,-0.09237921,0.59000000,-18.80000000,0.14000000
742,0,0.32200000,0.00800000,0.94800000,0.05000000,0.01000000,-0.07000000,0.00868619,-0.11430788,-0.09245204,0.59000000,-18.80000000,0.14000000
743,0,0.32600000,0.01000000,0.94800000,-0.00000000,-0.34000000,-0.10000000,0.00868619,-0.13345046,-0.09808221,0.59000000,-18.80000000,0.14000000
744,0,0.32200000,0.01400000,0.94800000,0.06000000,-0.15000000,-0.00000000,0.00875503,-0.13362257,-0.09808221,0.59000000,-18.80000000,0.14000000
745,0,0.32300000,0.01400000,0.94700000,-0.00000000,-0.16000000,-0.10000000,0.00875503,-0.13380260,-0.09819473,0.59000000,-18.80000000,0.14000000
746,0,0.32500000,0.01200000,0.94700000,0.04000000,-0.01000000,-0.12000000,0.00880062,-0.13381400,-0.09833149,0.59000000,-18.80000000,0.14000000
747,0,0.32300000,0.00900000,0.94600000,-0.07000000,0.05000000,0.13000000,0.00872543,-0.13376029,-0.09819185,0.59000000,-18.80000000,0.14000000
748,0,0.31900000,0.01100000,0.94600000,0.04000000,-0.13000000,0.06000000,0.00876848,-0.13390021,-0.09812727,0.59000000,-18.80000000,0.14000000
749,0,0.32300000,0.01500000,0.94700000,0.22000000,0.11000000,0.05000000,0.02087135,-0.12784877,-0.09537662,0.59000000,-18.80000000,0.14000000
750,0,0.32500000,0.00700000,0.94700000,0.14000000,0.01000000,0.10000000,0.02101633,-0.12783842,-0.09527306,0.59000000,-18.80000000,0.14000000
751,0,0.32400000,0.00800000,0.94400000,-0.09000000,0.02000000,0.05000000,0.02092645,-0.12781845,-0.09522313,0.59000000,-18.80000000,0.14000000
752,0,0.31900000,0.00900000,0.94400000,-0.18000000,-0.14000000,0.11000000,0.02074761,-0.12795755,-0.09511384,0.59000000,-18.80000000,0.14000000
753,0,0.32500000,0.01200000,0.94200000,0.13000000,0.01000000,-0.10000000,0.02087838,-0.12794749,-0.09521444,0.59000000,-18.80000000,0.14000000
754,0,0.32500000,0.01300000,0.94500000,0.00000000,-0.14000000,0.12000000,0.02087838,-0.12808870,-0.09509340,0.59000000,-18.80000000,0.14000000
755,0,0.32100000,0.01000000,0.94400000,0.00000000,-0.06000000,0.09000000,0.02087838,-0.13147508,-0.09001383,0.59000000,-18.80000000,0.14000000
756,0,0.31800000,0.01000000,0.94600000,0.01000000,-0.19000000,0.10000000,0.02088875,-0.13167211,-0.08991013,0.59000000,-18.80000000,0.14000000
757,0,0.32200000,0.00800000,0.94900000,-0.08000000,-0.02000000,-0.04000000,0.02080883,-0.13169209,-0.08995009,0.59000000,-18.80000000,0.14000000
758,0,0.32900000,0.00400000,0.94500000,-0.16000000,-0.41000000,0.15000000,0.02064894,-0.13210181,-0.08980020,0.59000000,-18.80000000,0.14000000
759,0,0.32200000,0.01000000,0.94300000,0.06000000,0.19000000,0.04000000,0.02070870,-0.13191257,-0.08976036,0.59000000,-18.80000000,0.14000000
760,0,0.32200000,0.00900000,0.94700000,0.19000000,0.04000000,-0.13000000,0.02089757,-0.13187281,-0.08988959,0.59000000,-18.80000000,0.14000000
761,0,0.31900000,0.00900000,0.94600000,0.00000000,-0.08000000,-0.11000000,0.02089757,-0.13631681,-0.09600008,0.59000000,-18.80000000,0.14000000
762,0,0.32500000,0.01000000,0.94500000,0.19000000,0.15000000,-0.13000000,0.02109659,-0.13615968,-0.09613625,0.59000000,-18.80000000,0.14000000
763,0,0.31800000,0.01200000,0.94600000,0.01000000,0.20000000,0.04000000,0.02110655,-0.13596058,-0.09609643,0.59000000,-18.80000000,0.14000000
764,0,0.32400000,0.01000000,0.94900000,-0.10000000,0.19000000,0.01000000,0.02100607,-0.13576967,-0.09608638,0.59000000,-18.80000000,0.14000000
765,0,0.32300000,0.00700000,0.94400000,0.17000000,0.27000000,0.16000000,0.02117550,-0.13550057,-0.09592691,0.59000000,-18.80000000,0.14000000
766,0,0.32000000,0.00700000,0.94300000,0.03000000,-0.18000000,-0.04000000,0.02120535,-0.13567963,-0.09596671,0.59000000,-18.80000000,0.14000000
767,0,0.32300000,0.01000000,0.94300000,-0.12000000,-0.05000000,-0.13000000,0.01454135,-0.13845629,-0.10318603,0.59000000,-18.80000000,0.14000000
768,0,0.32400000,0.00600000,0.94500000,0.01000000,-0.16000000,0.12000000,0.01455180,-0.13862339,-0.10306071,0.59000000,-18.80000000,0.14000000
769,0,0.32200000,0.01600000,0.94400000,0.01000000,0.07000000,-0.04000000,0.01456176,-0.13855367,-0.10310055,0.59000000,-18.80000000,0.14000000
770,0,0.32400000,0.00800000,0.94100000,0.04000000,-0.06000000,-0.08000000,0.01460178,-0.13861370,-0.10318059,0.59000000,-18.80000000,0.14000000
771,0,0.32400000,0.00700000,0.94100000,0.28000000,0.04000000,-0.11000000,0.01487992,-0.13857397,-0.10328985,0.59000000,-18.80000000,0.14000000
772,0,0.32700000,0.00700000,0.94100000,0.09000000,0.00000000,-0.03000000,0.01496934,-0.13857397,-0.10331966,0.59000000,-18.80000000,0.14000000
773,0,0.31900000,0.00900000,0.94900000,-0.01000000,0.01000000,-0.33000000,0.01441136,-0.13801599,-0.12173313,0.59000000,-18.80000000,0.14000000
774,0,0.32200000,0.01100000,0.94800000,0.29000000,0.01000000,-0.08000000,0.01471568,-0.13800549,-0.12181708,0.59000000,-18.80000000,0.14000000
775,0,0.32300000,0.00600000,0.94300000,-0.03000000,-0.08000000,-0.12000000,0.01468535,-0.13808635,-0.12193837,0.59000000,-18.80000000,0.14000000
776,0,0.32400000,0.00700000,0.95000000,-0.01000000,0.04000000,0.01000000,0.01467545,-0.13804674,-0.12192847,0.59000000,-18.79000000,0.14000000
777,0,0.32100000,0.00700000,0.94500000,-0.10000000,0.09000000,0.29000000,0.01457657,-0.13795775,-0.12164171,0.59000000,-18.79000000,0.14000000
778,0,0.31600000,0.00800000,0.94800000,-0.09000000,-0.15000000,-0.24000000,0.01448715,-0.13810679,-0.12188017,0.59000000,-18.79000000,0.14000000
779,0,0.32000000,0.01200000,0.94600000,0.00000000,-0.07000000,-0.05000000,0.01448715,-0.14204415,-0.12469258,0.59000000,-18.79000000,0.14000000
780,0,0.31800000,0.00900000,0.94600000,-0.12000000,-0.18000000,0.03000000,0.01436148,-0.14223265,-0.12466116,0.59000000,-18.79000000,0.14000000
781,0,0.32400000,0.01600000,0.94800000,0.01000000,0.02000000,0.23000000,0.01437158,-0.14221245,-0.12442885,0.59000000,-18.79000000,0.14000000
782,0,0.32500000,0.00600000,0.94500000,0.29000000,0.05000000,0.10000000,0.01466000,-0.14216272,-0.12432940,0.59000000,-18.79000000,0.14000000
783,0,0.32200000,0.00800000,0.94900000,-0.02000000,0.08000000,0.12000000,0.01464009,-0.14208308,-0.12420994,0.59000000,-18.79000000,0.14000000
784,0,0.32300000,0.00700000,0.95200000,0.17000000,0.05000000,0.07000000,0.01481058,-0.14203294,-0.12413973,0.59000000,-18.79000000,0.14000000
785,0,0.32400000,0.01200000,0.94800000,-0.07000000,0.27000000,0.10000000,0.01092228,-0.12703522,-0.11858502,0.59000000,-18.79000000,0.14000000
786,0,0.32600000,0.00700000,0.94600000,-0.06000000,0.03000000,-0.06000000,0.01085923,-0.12700370,-0.11864807,0.59000000,-18.79000000,0.14000000
787,0,0.32300000,0.01400000,0.94600000,0.07000000,-0.18000000,-0.12000000,0.01093030,-0.12718645,-0.11876991,0.59000000,-18.79000000,0.14000000
788,0,0.32600000,0.00800000,0.94800000,-0.04000000,0.12000000,0.21000000,0.01089049,-0.12706702,-0.11856090,0.59000000,-18.79000000,0.14000000
789,0,0.32000000,0.00400000,0.94700000,0.03000000,0.12000000,-0.12000000,0.01092031,-0.12694773,-0.11868019,0.59000000,-18.79000000,0.14000000
790,0,0.31900000,0.00800000,0.94900000,0.07000000,0.09000000,0.00000000,0.01099010,-0.12685801,-0.11868019,0.59000000,-18.79000000,0.14000000
791,0,0.32900000,0.01100000,0.94900000,-0.00000000,0.02000000,-0.07000000,0.01099010,-0.12572858,-0.12263319,0.59000000,-18.79000000,0.14000000
792,0,0.32100000,0.01000000,0.94600000,-0.40000000,-0.24000000,-0.02000000,0.01056148,-0.12598575,-0.12265462,0.59000000,-18.79000000,0.14000000
793,0,0.32300000,0.01100000,0.95000000,0.01000000,0.00000000,0.10000000,0.01057164,-0.12598575,-0.12255295,0.59000000,-18.79000000,0.14000000
794,0,0.31900000,0.00900000,0.94900000,0.16000000,-0.10000000,0.10000000,0.01073123,-0.12608549,-0.12245321,0.59000000,-18.79000000,0.14000000
795,0,0.31900000,0.01000000,0.95000000,-0.15000000,0.09000000,0.02000000,0.01058198,-0.12599594,-0.12243331,0.59000000,-18.79000000,0.14000000
796,0,0.32300000,0.00900000,0.94400000,-0.06000000,0.29000000,0.12000000,0.01052149,-0.12570358,-0.12231233,0.59000000,-18.79000000,0.14000000
797,0,0.31600000,0.00800000,0.94400000,-0.03000000,0.11000000,0.09000000,0.00885682,-0.11959980,-0.11731833,0.59000000,-18.79000000,0.14000000
798,0,0.31900000,0.01700000,0.94500000,0.10000000,0.06000000,0.35000000,0.00896350,-0.11953579,-0.11694495,0.59000000,-18.79000000,0.14000000
799,0,0.32400000,0.00900000,0.94600000,-0.12000000,0.30000000,-0.19000000,0.00884318,-0.11923500,-0.11713546,0.59000000,-18.79000000,0.14000000
800,0,0.32300000,0.01300000,0.94600000,-0.01000000,0.23000000,0.21000000,0.00883324,-0.11900630,-0.11692665,0.59000000,-18.79000000,0.14000000
801,0,0.32400000,0.01000000,0.94600000,-0.00000000,0.08000000,-0.15000000,0.00883324,-0.11892680,-0.11707573,0.59000000,-18.79000000,0.14000000
802,0,0.32600000,0.01300000,0.94800000,-0.09000000,0.13000000,0.04000000,0.00874248,-0.11879571,-0.11703539,0.59000000,-18.79000000,0.14000000
803,0,0.32000000,0.01400000,0.94700000,-0.03000000,-0.13000000,-0.09000000,0.00707717,-0.12601206,-0.12203133,0.59000000,-18.79000000,0.14000000
804,0,0.32200000,0.00800000,0.95000000,-0.06000000,-0.09000000,0.05000000,0.00701342,-0.12610768,-0.12197820,0.59000000,-18.79000000,0.14000000
805,0,0.32100000,0.01200000,0.94600000,-0.37000000,0.24000000,-0.13000000,0.00664288,-0.12586733,-0.12210839,0.59000000,-18.79000000,0.14000000
806,0,0.32900000,0.00800000,0.94800000,0.06000000,-0.02000000,-0.33000000,0.00670240,-0.12588717,-0.12243573,0.59000000,-18.79000000,0.14000000
807,0,0.32000000,0.00400000,0.94500000,-0.42000000,-0.05000000,0.23000000,0.00628649,-0.12593668,-0.12220797,0.59000000,-18.79000000,0.14000000
808,0,0.32300000,0.01000000,0.94700000,-0.00000000,-0.01000000,0.09000000,0.00628649,-0.12594668,-0.12211803,0.59000000,-18.79000000,0.14000000
809,0,0.32200000,0.00800000,0.94700000,0.17000000,0.13000000,-0.13000000,0.01589191,-0.11860136,-0.12946335,0.59000000,-18.79000000,0.14000000
810,0,0.31900000,0.01300000,0.94800000,0.13000000,0.17000000,0.16000000,0.01602907,-0.11842199,-0.12929453,0.59000000,-18.79000000,0.14000000
811,0,0.31900000,0.01100000,0.94400000,0.05000000,-0.10000000,0.16000000,0.01607924,-0.11852233,-0.12913399,0.59000000,-18.79000000,0.14000000
812,0,0.32600000,0.01300000,0.94800000,-0.06000000,-0.08000000,-0.07000000,0.01601922,-0.11860235,-0.12920401,0.59000000,-18.79000000,0.14000000
813,0,0.32100000,0.01100000,0.94500000,-0.10000000,0.08000000,-0.00000000,0.01591734,-0.11852084,-0.12920401,0.59000000,-18.79000000,0.14000000
814,0,0.32100000,0.01200000,0.94500000,-0.03000000,0.18000000,0.21000000,0.01588723,-0.11834019,-0.12899325,0.59000000,-18.79000000,0.14000000
815,0,0.32500000,0.01200000,0.94500000,-0.00000000,-0.04000000,0.04000000,0.01588723,-0.12056119,-0.12677226,0.59000000,-18.79000000,0.14000000
816,0,0.32300000,0.01000000,0.94100000,-0.16000000,-0.04000000,-0.23000000,0.01571868,-0.12060333,-0.12701455,0.59000000,-18.79000000,0.14000000
817,0,0.31900000,0.01100000,0.94800000,0.00000000,-0.13000000,0.19000000,0.01571868,-0.12073342,-0.12682441,0.59000000,-18.79000000,0.14000000
818,0,0.31900000,0.00700000,0.94300000,0.08000000,0.03000000,0.25000000,0.01579816,-0.12070362,-0.12657601,0.59000000,-18.79000000,0.14000000
819,0,0.32800000,0.00200000,0.94900000,-0.06000000,0.11000000,-0.15000000,0.01573806,-0.12059343,-0.12672626,0.59000000,-18.79000000,0.14000000
820,0,0.32000000,0.01500000,0.94400000,0.06000000,-0.04000000,0.22000000,0.01579792,-0.12063333,-0.12650678,0.59000000,-18.79000000,0.14000000
821,0,0.32000000,0.01300000,0.94400000,0.09000000,-0.15000000,-0.02000000,0.02079667,-0.12896458,-0.12761761,0.59000000,-18.79000000,0.14000000
822,0,0.32000000,0.01100000,0.94900000,0.07000000,0.11000000,0.05000000,0.02087024,-0.12884896,-0.12756506,0.59000000,-18.79000000,0.14000000
823,0,0.31300000,0.00900000,0.94600000,0.17000000,0.02000000,0.17000000,0.02104049,-0.12882893,-0.12739481,0.59000000,-18.79000000,0.14000000
824,0,0.32500000,0.01300000,0.94800000,0.09000000,0.24000000,0.10000000,0.02112985,-0.12859064,-0.12729552,0.59000000,-18.79000000,0.14000000
825,0,0.32200000,0.01300000,0.94700000,0.29000000,0.06000000,0.05000000,0.02142117,-0.12853037,-0.12724530,0.59000000,-18.79000000,0.14000000
826,0,0.31600000,0.00900000,0.94600000,-0.06000000,-0.21000000,-0.16000000,0.02136148,-0.12873927,-0.12740446,0.59000000,-18.79000000,0.14000000
827,0,0.32000000,0.01500000,0.94400000,-0.15000000,-0.09000000,-0.19000000,0.01289527,-0.13381900,-0.13812833,0.59000000,-18.79000000,0.14000000
828,0,0.31900000,0.01100000,0.94300000,0.28000000,-0.12000000,-0.01000000,0.01318810,-0.13394450,-0.13813879,0.59000000,-18.79000000,0.14000000
829,0,0.31900000,0.00800000,0.94600000,0.01000000,0.19000000,-0.25000000,0.01319809,-0.13375467,-0.13838856,0.59000000,-18.79000000,0.14000000
830,0,0.32500000,0.00600000,0.94800000,-0.06000000,-0.05000000,-0.06000000,0.01313790,-0.13380483,-0.13844874,0.59000000,-18.79000000,0.14000000
831,0,0.31900000,0.01000000,0.94600000,0.09000000,0.17000000,-0.08000000,0.01322760,-0.13363539,-0.13852848,0.59000000,-18.79000000,0.14000000
832,0,0.31800000,0.01100000,0.95000000,0.01000000,0.16000000,-0.04000000,0.01323757,-0.13347588,-0.13856836,0.59000000,-18.79000000,0.14000000
833,0,0.32000000,0.00700000,0.94600000,0.22000000,0.08000000,0.15000000,0.02545059,-0.12903478,-0.13024130,0.59000000,-18.78000000,0.14000000
834,0,0.32000000,0.00900000,0.94500000,0.02000000,0.02000000,-0.16000000,0.02547165,-0.12901373,-0.13040973,0.59000000,-18.78000000,0.14000000
835,0,0.32300000,0.01200000,0.94600000,-0.05000000,0.03000000,0.06000000,0.02542169,-0.12898376,-0.13034979,0.59000000,-18.78000000,0.14000000
836,0,0.32100000,0.01200000,0.94400000,-0.01000000,-0.02000000,-0.16000000,0.02541163,-0.12900388,-0.13051075,0.59000000,-18.78000000,0.14000000
