Measurement Count,IMU_MODE,Accel_X,Accel_Y,Accel_Z,Gyro_X,Gyro_Y,Gyro_Z,X_DEL_ANG,Y_DEL_ANG,Z_DEL_ANG,ROLL,PITCH,HEADING
1,0,0.34100000,0.08100000,0.93500000,-0.25000000,0.20000000,0.05000000,-0.00024691,0.00019753,0.00004938,5.09000000,-20.02000000,0.06000000
2,0,0.33900000,0.08200000,0.93700000,-0.38000000,0.04000000,0.21000000,-0.00063118,0.00023798,0.00026174,5.04000000,-20.13000000,0.08000000
3,0,0.34300000,0.07900000,0.94000000,0.17000000,-0.01000000,0.27000000,-0.00046336,0.00022810,0.00052827,5.06000000,-20.07000000,0.07000000
4,0,0.34200000,0.08900000,0.93600000,0.17000000,-0.18000000,-0.00000000,-0.00029336,0.00004810,0.00052827,5.19000000,-20.08000000,0.03000000
5,0,0.33700000,0.08600000,0.93500000,0.00000000,-0.15000000,-0.05000000,-0.00029336,-0.00010026,0.00047882,5.21000000,-20.04000000,0.02000000
6,0,0.34500000,0.08600000,0.93700000,0.07000000,0.12000000,0.23000000,-0.00022467,0.00001748,0.00070449,5.20000000,-20.04000000,0.02000000
7,0,0.34300000,0.08300000,0.93200000,0.19000000,0.17000000,0.22000000,-0.00003806,0.00018445,0.00092057,5.19000000,-20.05000000,0.03000000
8,0,0.33900000,0.07500000,0.93500000,0.05000000,-0.02000000,0.42000000,0.00001750,0.00016222,0.00138734,5.16000000,-20.05000000,0.04000000
9,0,0.34400000,0.08100000,0.93300000,-0.11000000,-0.21000000,-0.05000000,-0.00009997,-0.00006205,0.00133394,5.15000000,-20.05000000,0.04000000
10,0,0.33900000,0.08300000,0.93400000,0.21000000,0.09000000,-0.12000000,0.00011669,0.00003080,0.00121014,5.13000000,-20.03000000,0.05000000
11,0,0.34500000,0.08100000,0.93300000,0.13000000,-0.01000000,-0.21000000,0.00024453,0.00002097,0.00100363,5.14000000,-20.03000000,0.04000000
12,0,0.33900000,0.08300000,0.93400000,0.01000000,0.12000000,-0.02000000,0.00025479,0.00014415,0.00098310,5.14000000,-20.03000000,0.04000000
13,0,0.34100000,0.08000000,0.93800000,-0.25000000,-0.08000000,0.01000000,-0.00001799,0.00005686,0.00099402,5.14000000,-20.03000000,0.04000000
14,0,0.34600000,0.07900000,0.93800000,-0.48000000,-0.27000000,0.13000000,-0.00051162,-0.00022081,0.00112771,5.13000000,-20.03000000,0.05000000
15,0,0.34400000,0.07900000,0.93700000,-0.04000000,-0.07000000,-0.13000000,-0.00055283,-0.00029293,0.00099377,5.10000000,-20.03000000,0.06000000
16,0,0.34900000,0.08500000,0.93700000,0.11000000,0.17000000,0.23000000,-0.00043624,-0.00011275,0.00123754,5.10000000,-20.04000000,0.06000000
17,0,0.33500000,0.08800000,0.93700000,0.20000000,0.21000000,0.21000000,-0.00019652,0.00013896,0.00148925,5.10000000,-20.03000000,0.06000000
18,0,0.34000000,0.08700000,0.93700000,-0.02000000,0.09000000,0.17000000,-0.00021767,0.00023413,0.00166902,5.10000000,-20.03000000,0.06000000
19,0,0.33800000,0.08700000,0.93700000,-0.00000000,-0.16000000,0.12000000,-0.00021767,0.00004830,0.00180840,5.11000000,-20.03000000,0.05000000
20,0,0.34300000,0.08200000,0.93500000,0.02000000,-0.03000000,-0.05000000,-0.00019396,0.00001274,0.00174912,5.11000000,-20.03000000,0.05000000
21,0,0.33800000,0.08700000,0.93600000,-0.08000000,0.04000000,-0.14000000,-0.00027510,0.00005331,0.00160711,5.10000000,-20.02000000,0.06000000
22,0,0.34500000,0.07700000,0.93500000,0.10000000,0.03000000,-0.36000000,-0.00016838,0.00008533,0.00122290,5.09000000,-20.03000000,0.06000000
23,0,0.34400000,0.08300000,0.93700000,0.38000000,-0.12000000,-0.02000000,0.00022812,-0.00003988,0.00120203,5.09000000,-20.03000000,0.06000000
24,0,0.34600000,0.09000000,0.94000000,-0.10000000,0.13000000,0.30000000,0.00010402,0.00012146,0.00157435,5.10000000,-20.02000000,0.06000000
25,0,0.33900000,0.08800000,0.93400000,-0.11000000,0.01000000,-0.05000000,-0.00003195,0.00013382,0.00151255,5.11000000,-20.03000000,0.05000000
26,0,0.34200000,0.08500000,0.93800000,-0.06000000,0.04000000,0.01000000,-0.00009677,0.00017703,0.00152335,5.11000000,-20.03000000,0.05000000
27,0,0.34400000,0.08300000,0.93600000,-0.05000000,-0.14000000,0.17000000,-0.00014884,0.00003126,0.00170037,5.11000000,-20.02000000,0.05000000
28,0,0.34400000,0.08100000,0.93400000,0.21000000,-0.02000000,-0.15000000,0.00332550,-0.00029963,-0.00078130,5.10000000,-20.02000000,0.05000000
29,0,0.34100000,0.08300000,0.93400000,-0.17000000,0.24000000,-0.15000000,0.00312307,-0.00001385,-0.00095991,5.10000000,-20.02000000,0.05000000
30,0,0.34300000,0.09200000,0.93500000,0.16000000,-0.17000000,0.13000000,0.00331588,-0.00021871,-0.00080325,5.11000000,-20.02000000,0.05000000
31,0,0.34100000,0.08100000,0.93200000,-0.07000000,-0.08000000,0.03000000,0.00322815,-0.00031897,-0.00076566,5.11000000,-20.02000000,0.05000000
32,0,0.34200000,0.08400000,0.93200000,-0.22000000,-0.17000000,0.19000000,0.00298769,-0.00050478,-0.00055798,5.11000000,-20.03000000,0.05000000
33,0,0.34200000,0.08400000,0.93600000,-0.27000000,-0.16000000,0.17000000,0.00266180,-0.00069790,-0.00035280,5.12000000,-20.03000000,0.05000000
34,0,0.34200000,0.08100000,0.93700000,-0.32000000,0.13000000,-0.02000000,-0.01507398,0.00650726,-0.00146128,5.11000000,-20.03000000,0.05000000
35,0,0.34200000,0.07800000,0.93700000,0.26000000,0.11000000,-0.17000000,-0.01478886,0.00662789,-0.00164770,5.10000000,-20.03000000,0.05000000
36,0,0.34300000,0.08700000,0.93500000,-0.05000000,0.16000000,0.05000000,-0.01484199,0.00679789,-0.00159458,5.11000000,-20.03000000,0.05000000
37,0,0.34600000,0.08200000,0.93300000,-0.07000000,0.06000000,0.12000000,-0.01491318,0.00685890,-0.00147254,5.11000000,-20.04000000,0.05000000
38,0,0.34500000,0.08700000,0.93200000,-0.29000000,0.08000000,0.07000000,-0.01520567,0.00693959,-0.00140194,5.11000000,-20.04000000,0.05000000
39,0,0.33900000,0.08300000,0.93900000,0.05000000,0.09000000,0.24000000,-0.01515589,0.00702921,-0.00116296,5.11000000,-20.04000000,0.05000000
40,0,0.34300000,0.07700000,0.93500000,0.01000000,-0.18000000,-0.21000000,-0.01460257,-0.00293043,-0.01278254,5.10000000,-20.04000000,0.05000000
41,0,0.34400000,0.08400000,0.93700000,0.07000000,-0.10000000,-0.05000000,-0.01452838,-0.00303642,-0.01283554,5.10000000,-20.04000000,0.05000000
42,0,0.34600000,0.08100000,0.93500000,0.06000000,-0.06000000,-0.19000000,-0.01446811,-0.00309669,-0.01302640,5.10000000,-20.04000000,0.05000000
43,0,0.34000000,0.08200000,0.93500000,-0.12000000,-0.03000000,-0.03000000,-0.01458728,-0.00312649,-0.01305620,5.10000000,-20.04000000,0.05000000
44,0,0.34300000,0.08100000,0.93800000,-0.02000000,0.09000000,0.14000000,-0.01460715,-0.00303706,-0.01291709,5.10000000,-20.03000000,0.05000000
45,0,0.34000000,0.08800000,0.93500000,-0.09000000,0.17000000,-0.08000000,-0.01469737,-0.00286665,-0.01299729,5.10000000,-20.03000000,0.05000000
46,0,0.34200000,0.07900000,0.93200000,-0.20000000,0.06000000,-0.20000000,-0.02582582,0.00047188,-0.02412573,5.10000000,-20.03000000,0.05000000
47,0,0.34800000,0.08100000,0.93800000,-0.02000000,0.11000000,0.23000000,-0.02584685,0.00058755,-0.02388388,5.09000000,-20.03000000,0.06000000
48,0,0.34100000,0.08300000,0.93400000,0.29000000,0.03000000,-0.17000000,-0.02555712,0.00061752,-0.02405372,5.09000000,-20.03000000,0.06000000
49,0,0.33900000,0.08600000,0.93900000,0.05000000,-0.14000000,-0.16000000,-0.02550765,0.00047902,-0.02421201,5.10000000,-20.03000000,0.06000000
50,0,0.34400000,0.08200000,0.93900000,-0.06000000,0.08000000,0.05000000,-0.02556702,0.00055818,-0.02416254,5.10000000,-20.03000000,0.05000000
51,0,0.33900000,0.08800000,0.93500000,0.08000000,0.18000000,0.06000000,-0.02548710,0.00073802,-0.02410259,5.10000000,-20.03000000,0.05000000
52,0,0.34100000,0.08100000,0.93400000,-0.30000000,0.11000000,-0.10000000,-0.04240185,0.00694010,-0.02974084,5.10000000,-20.03000000,0.05000000
53,0,0.34000000,0.08700000,0.94000000,-0.02000000,0.25000000,0.17000000,-0.04242308,0.00720548,-0.02956038,5.10000000,-20.03000000,0.05000000
54,0,0.34500000,0.08200000,0.93900000,-0.11000000,0.15000000,0.05000000,-0.04253285,0.00735516,-0.02951049,5.10000000,-20.03000000,0.05000000
55,0,0.34300000,0.07900000,0.93700000,0.19000000,-0.30000000,-0.19000000,-0.04234493,0.00705844,-0.02969841,5.10000000,-20.03000000,0.05000000
56,0,0.33700000,0.08600000,0.93600000,-0.06000000,-0.14000000,-0.08000000,-0.04240467,0.00691904,-0.02977807,5.10000000,-20.03000000,0.05000000
57,0,0.34000000,0.08400000,0.94200000,-0.05000000,0.02000000,0.05000000,-0.04245426,0.00693887,-0.02972848,5.10000000,-20.03000000,0.05000000
58,0,0.34400000,0.08600000,0.93800000,0.04000000,0.02000000,-0.10000000,-0.04023338,0.00804932,-0.03528069,5.10000000,-20.03000000,0.05000000
59,0,0.34400000,0.08400000,0.93700000,-0.26000000,0.06000000,-0.14000000,-0.04050808,0.00811271,-0.03542861,5.09000000,-20.03000000,0.06000000
60,0,0.34100000,0.08000000,0.93900000,0.10000000,-0.08000000,-0.04000000,-0.04040776,0.00803246,-0.03546873,5.09000000,-20.03000000,0.06000000
61,0,0.33800000,0.08100000,0.93400000,-0.06000000,0.18000000,-0.17000000,-0.04046713,0.00821057,-0.03563695,5.09000000,-20.03000000,0.06000000
62,0,0.34200000,0.08400000,0.93700000,-0.07000000,0.19000000,0.01000000,-0.04053702,0.00840026,-0.03562697,5.09000000,-20.03000000,0.06000000
63,0,0.33900000,0.08900000,0.93500000,0.11000000,0.01000000,0.07000000,-0.04042767,0.00841020,-0.03555738,5.09000000,-20.02000000,0.06000000
64,0,0.33800000,0.08300000,0.93500000,-0.20000000,0.12000000,0.01000000,-0.05157829,0.01510058,-0.03499985,5.09000000,-20.03000000,0.06000000
65,0,0.34300000,0.08300000,0.93400000,-0.02000000,-0.00000000,0.05000000,-0.05159945,0.01510058,-0.03494695,5.09000000,-20.03000000,0.06000000
66,0,0.34000000,0.08000000,0.93700000,0.09000000,-0.38000000,-0.14000000,-0.05150940,0.01472038,-0.03508703,5.09000000,-20.03000000,0.06000000
67,0,0.34400000,0.08600000,0.93600000,0.26000000,0.07000000,0.12000000,-0.05124828,0.01479069,-0.03496651,5.09000000,-20.03000000,0.06000000
68,0,0.34100000,0.08400000,0.94000000,0.19000000,-0.17000000,0.07000000,-0.05106063,0.01462279,-0.03489737,5.10000000,-20.03000000,0.05000000
69,0,0.34600000,0.08800000,0.93000000,0.08000000,0.28000000,0.04000000,-0.05098139,0.01490013,-0.03485775,5.10000000,-20.03000000,0.05000000
70,0,0.34200000,0.08300000,0.94200000,-0.28000000,-0.00000000,-0.16000000,-0.06674179,0.01490013,-0.04386370,5.10000000,-20.03000000,0.05000000
71,0,0.34400000,0.08400000,0.93600000,-0.14000000,0.08000000,0.24000000,-0.06688998,0.01498480,-0.04360967,5.10000000,-20.03000000,0.05000000
72,0,0.33400000,0.08100000,0.93800000,0.04000000,-0.10000000,0.14000000,-0.06684984,0.01488446,-0.04346920,5.10000000,-20.03000000,0.05000000
73,0,0.34500000,0.08000000,0.94200000,0.34000000,-0.00000000,-0.46000000,-0.06650456,0.01488446,-0.04393634,5.10000000,-20.03000000,0.05000000
74,0,0.34200000,0.08500000,0.93500000,0.34000000,-0.07000000,-0.28000000,-0.06616861,0.01481530,-0.04421301,5.10000000,-20.03000000,0.05000000
75,0,0.34100000,0.08600000,0.93400000,0.17000000,0.02000000,-0.05000000,-0.06599949,0.01483519,-0.04426275,5.11000000,-20.02000000,0.05000000
76,0,0.34100000,0.08400000,0.93400000,-0.44000000,0.23000000,0.06000000,-0.09041682,0.02759880,-0.04093312,5.11000000,-20.02000000,0.05000000
77,0,0.33800000,0.07800000,0.94300000,-0.40000000,-0.34000000,-0.12000000,-0.09083658,0.02724201,-0.04105904,5.10000000,-20.02000000,0.05000000
78,0,0.34200000,0.07800000,0.93700000,-0.12000000,-0.25000000,-0.04000000,-0.09095712,0.02699087,-0.04109922,5.09000000,-20.02000000,0.05000000
79,0,0.34300000,0.08400000,0.93800000,0.43000000,-0.07000000,-0.05000000,-0.09052701,0.02692085,-0.04114924,5.10000000,-20.02000000,0.05000000
80,0,0.33700000,0.08800000,0.93000000,-0.07000000,0.17000000,-0.34000000,-0.09059664,0.02708996,-0.04148746,5.10000000,-20.02000000,0.05000000
81,0,0.34600000,0.08800000,0.93500000,0.31000000,0.07000000,-0.00000000,-0.09028907,0.02715941,-0.04148746,5.11000000,-20.02000000,0.05000000
82,0,0.34400000,0.08300000,0.93800000,-0.34000000,-0.23000000,0.01000000,-0.11021957,0.01367701,-0.04090127,5.11000000,-20.02000000,0.05000000
83,0,0.34300000,0.08100000,0.93500000,-0.04000000,0.12000000,0.12000000,-0.11026184,0.01380380,-0.04077449,5.11000000,-20.02000000,0.05000000
84,0,0.34000000,0.08500000,0.93700000,-0.13000000,-0.03000000,0.22000000,-0.11039339,0.01377344,-0.04055186,5.10000000,-20.02000000,0.05000000
85,0,0.34600000,0.07700000,0.93700000,0.03000000,0.06000000,0.18000000,-0.11036359,0.01383304,-0.04037306,5.10000000,-20.02000000,0.05000000
86,0,0.34700000,0.08400000,0.93100000,0.29000000,0.13000000,-0.10000000,-0.11007102,0.01396419,-0.04047394,5.10000000,-20.02000000,0.05000000
87,0,0.34600000,0.08600000,0.93500000,0.23000000,0.07000000,-0.08000000,-0.10984112,0.01403416,-0.04055391,5.11000000,-20.02000000,0.05000000
88,0,0.34200000,0.09000000,0.93300000,0.03000000,0.03000000,-0.01000000,-0.10981119,0.01406410,-0.04056388,5.11000000,-20.02000000,0.05000000
89,0,0.34000000,0.09100000,0.93300000,-0.29000000,0.16000000,-0.04000000,-0.12615686,0.02308240,-0.04281846,5.11000000,-20.02000000,0.05000000
90,0,0.33900000,0.07800000,0.93900000,-0.20000000,0.03000000,-0.00000000,-0.12636626,0.02311381,-0.04281846,5.11000000,-20.02000000,0.05000000
91,0,0.34300000,0.07800000,0.93700000,0.12000000,-0.15000000,-0.02000000,-0.12624555,0.02296291,-0.04283858,5.10000000,-20.02000000,0.05000000
92,0,0.34600000,0.08400000,0.93700000,0.05000000,0.19000000,-0.14000000,-0.12619600,0.02315120,-0.04297732,5.10000000,-20.02000000,0.05000000
93,0,0.33800000,0.08700000,0.93700000,0.20000000,-0.17000000,-0.11000000,-0.12599485,0.02298022,-0.04308795,5.11000000,-20.02000000,0.05000000
94,0,0.34300000,0.08900000,0.93500000,0.39000000,-0.01000000,0.13000000,-0.12560483,0.02297022,-0.04295795,5.12000000,-20.02000000,0.04000000
95,0,0.34500000,0.08700000,0.93500000,-0.55000000,-0.14000000,0.37000000,-0.15614171,0.01519720,-0.02241496,5.11000000,-20.02000000,0.05000000
96,0,0.34500000,0.07700000,0.93700000,-0.26000000,-0.07000000,0.19000000,-0.15641622,0.01512329,-0.02221435,5.11000000,-20.02000000,0.05000000
97,0,0.34100000,0.07900000,0.93900000,0.13000000,-0.05000000,-0.21000000,-0.15628340,0.01507220,-0.02242891,5.10000000,-20.02000000,0.05000000
98,0,0.34300000,0.08800000,0.93800000,0.02000000,-0.03000000,-0.11000000,-0.15626342,0.01504223,-0.02253881,5.10000000,-20.02000000,0.05000000
99,0,0.33900000,0.08500000,0.93300000,0.65000000,0.15000000,-0.27000000,-0.15561619,0.01519159,-0.02280766,5.11000000,-20.02000000,0.05000000
100,0,0.34700000,0.08900000,0.93700000,0.01000000,-0.14000000,0.03000000,-0.15560621,0.01505192,-0.02277773,5.12000000,-20.02000000,0.04000000
101,0,0.34300000,0.08800000,0.93400000,-0.09000000,0.08000000,-0.03000000,-0.16061665,0.01950565,-0.02444788,5.11000000,-20.02000000,0.05000000
102,0,0.34300000,0.08400000,0.93500000,-0.04000000,0.08000000,0.15000000,-0.16065803,0.01958841,-0.02429269,5.11000000,-20.02000000,0.05000000
103,0,0.34500000,0.07400000,0.93900000,-0.21000000,0.13000000,0.10000000,-0.16086919,0.01971913,-0.02419214,5.11000000,-20.02000000,0.05000000
104,0,0.34500000,0.08600000,0.94000000,-0.07000000,-0.11000000,-0.14000000,-0.16094896,0.01959378,-0.02435167,5.11000000,-20.02000000,0.05000000
105,0,0.34500000,0.08600000,0.93400000,0.56000000,-0.17000000,-0.11000000,-0.16038347,0.01942212,-0.02446275,5.11000000,-20.02000000,0.05000000
106,0,0.34400000,0.09200000,0.93300000,0.14000000,0.03000000,0.07000000,-0.16024496,0.01945180,-0.02439350,5.11000000,-20.02000000,0.05000000
107,0,0.34200000,0.08400000,0.93800000,-0.14000000,0.06000000,0.21000000,-0.16813972,0.02283526,-0.01255136,5.12000000,-20.02000000,0.05000000
108,0,0.34300000,0.07800000,0.93700000,-0.31000000,-0.28000000,0.30000000,-0.16854005,0.02247368,-0.01216395,5.11000000,-20.02000000,0.05000000
109,0,0.33900000,0.07600000,0.93800000,-0.06000000,0.02000000,0.14000000,-0.16861398,0.02249832,-0.01199144,5.11000000,-20.02000000,0.05000000
110,0,0.34100000,0.08100000,0.93900000,0.13000000,-0.04000000,-0.10000000,-0.16845518,0.02244946,-0.01211359,5.10000000,-20.02000000,0.05000000
111,0,0.33700000,0.08500000,0.93300000,0.22000000,0.27000000,-0.11000000,-0.16818603,0.02277979,-0.01224816,5.11000000,-20.02000000,0.05000000
112,0,0.34300000,0.08400000,0.93400000,0.30000000,-0.04000000,-0.13000000,-0.16781557,0.02273039,-0.01240870,5.11000000,-20.02000000,0.05000000
113,0,0.34700000,0.08600000,0.93300000,-0.12000000,0.01000000,0.18000000,-0.17433848,0.02327397,-0.00262432,5.12000000,-20.02000000,0.05000000
114,0,0.34300000,0.08800000,0.93600000,-0.31000000,0.03000000,-0.03000000,-0.17473888,0.02331272,-0.00266307,5.12000000,-20.02000000,0.05000000
115,0,0.34000000,0.08200000,0.94000000,-0.17000000,-0.06000000,0.01000000,-0.17495789,0.02323542,-0.00265019,5.12000000,-20.02000000,0.05000000
116,0,0.34200000,0.08000000,0.93900000,-0.04000000,0.07000000,0.08000000,-0.17500960,0.02332592,-0.00254677,5.11000000,-20.02000000,0.05000000
117,0,0.34100000,0.08200000,0.93500000,0.23000000,-0.17000000,-0.23000000,-0.17471275,0.02310650,-0.00284362,5.11000000,-20.02000000,0.05000000
118,0,0.34100000,0.08800000,0.93800000,0.27000000,0.11000000,-0.21000000,-0.17436299,0.02324900,-0.00311566,5.12000000,-20.02000000,0.04000000
119,0,0.34400000,0.09000000,0.94100000,0.28000000,0.08000000,0.04000000,-0.15915914,0.02759296,-0.00094368,5.12000000,-20.01000000,0.04000000
120,0,0.34100000,0.08400000,0.93400000,-0.00000000,-0.01000000,0.17000000,-0.15915914,0.02757951,-0.00071503,5.12000000,-20.01000000,0.04000000
121,0,0.34300000,0.08100000,0.93200000,-0.05000000,-0.18000000,0.50000000,-0.15922321,0.02734886,-0.00007434,5.12000000,-20.01000000,0.05000000
122,0,0.35000000,0.07800000,0.93700000,-0.32000000,0.11000000,-0.22000000,-0.15963919,0.02749186,-0.00036034,5.12000000,-20.01000000,0.05000000
123,0,0.33800000,0.08000000,0.94300000,0.08000000,-0.12000000,-0.11000000,-0.15953602,0.02733709,-0.00050220,5.11000000,-20.01000000,0.05000000
124,0,0.33900000,0.08400000,0.93400000,0.06000000,0.12000000,-0.12000000,-0.15945833,0.02749246,-0.00065757,5.11000000,-20.01000000,0.05000000
125,0,0.33700000,0.08300000,0.93300000,0.03000000,0.25000000,0.36000000,-0.15781190,0.04121276,0.01909966,5.12000000,-20.01000000,0.05000000
126,0,0.34300000,0.08900000,0.93600000,0.01000000,0.05000000,0.17000000,-0.15779856,0.04127945,0.01932641,5.12000000,-20.01000000,0.05000000
127,0,0.34300000,0.08000000,0.93600000,-0.36000000,0.01000000,0.03000000,-0.15825934,0.04129225,0.01936481,5.12000000,-20.01000000,0.05000000
128,0,0.34000000,0.07800000,0.93100000,-0.29000000,0.01000000,-0.19000000,-0.15863784,0.04130530,0.01911682,5.12000000,-20.01000000,0.05000000
129,0,0.34800000,0.07600000,0.93700000,0.26000000,0.01000000,-0.04000000,-0.15829998,0.04131830,0.01906484,5.11000000,-20.01000000,0.05000000
130,0,0.34500000,0.08200000,0.93500000,0.28000000,-0.05000000,-0.27000000,-0.15793753,0.04125357,0.01871533,5.12000000,-20.01000000,0.05000000
131,0,0.34400000,0.08400000,0.93500000,0.33000000,-0.14000000,-0.15000000,-0.14009282,0.03368309,0.01060410,5.12000000,-20.01000000,0.05000000
132,0,0.34400000,0.08800000,0.94000000,-0.07000000,0.19000000,-0.00000000,-0.14018904,0.03394426,0.01060410,5.12000000,-20.01000000,0.04000000
133,0,0.34100000,0.08400000,0.93900000,-0.17000000,0.08000000,-0.36000000,-0.14041384,0.03405005,0.01012805,5.12000000,-20.01000000,0.04000000
134,0,0.34600000,0.08200000,0.93400000,-0.09000000,0.09000000,0.23000000,-0.14053097,0.03416718,0.01042737,5.12000000,-20.01000000,0.04000000
135,0,0.34700000,0.08100000,0.94000000,-0.14000000,-0.06000000,-0.15000000,-0.14071133,0.03408988,0.01023413,5.11000000,-20.01000000,0.04000000
136,0,0.34100000,0.08300000,0.93500000,-0.05000000,-0.30000000,-0.12000000,-0.14077912,0.03368315,0.01007144,5.11000000,-20.01000000,0.05000000
137,0,0.34200000,0.08400000,0.93800000,0.14000000,0.15000000,-0.02000000,-0.13320506,0.04179821,0.00898943,5.11000000,-20.02000000,0.04000000
138,0,0.34200000,0.08600000,0.93600000,0.23000000,-0.11000000,-0.17000000,-0.13288140,0.04164341,0.00875020,5.11000000,-20.01000000,0.04000000
139,0,0.34100000,0.08800000,0.93500000,-0.09000000,0.03000000,-0.04000000,-0.13300545,0.04168477,0.00869506,5.12000000,-20.01000000,0.04000000
140,0,0.34500000,0.08700000,0.93400000,-0.20000000,0.03000000,0.07000000,-0.13328127,0.04172614,0.00879160,5.12000000,-20.01000000,0.04000000
141,0,0.34800000,0.08400000,0.93900000,0.04000000,-0.32000000,-0.37000000,-0.13322710,0.04129276,0.00829050,5.11000000,-20.01000000,0.04000000
142,0,0.34100000,0.08100000,0.93300000,-0.03000000,-0.28000000,-0.13000000,-0.13326908,0.04090100,0.00810861,5.11000000,-20.01000000,0.04000000
143,0,0.34200000,0.08500000,0.93500000,0.18000000,-0.05000000,-0.06000000,-0.12347449,0.03818028,0.00484375,5.12000000,-20.02000000,0.04000000
144,0,0.34300000,0.08400000,0.93600000,0.06000000,0.04000000,-0.19000000,-0.12338915,0.03823717,0.00457352,5.12000000,-20.02000000,0.04000000
145,0,0.34500000,0.08500000,0.93000000,-0.01000000,0.09000000,-0.11000000,-0.12340334,0.03836483,0.00441749,5.12000000,-20.02000000,0.04000000
146,0,0.34200000,0.08500000,0.93700000,0.03000000,0.02000000,-0.11000000,-0.12336201,0.03839238,0.00426597,5.12000000,-20.02000000,0.04000000
147,0,0.34100000,0.08400000,0.93400000,-0.10000000,-0.24000000,0.18000000,-0.12349835,0.03806517,0.00451138,5.12000000,-20.02000000,0.04000000
148,0,0.34600000,0.08400000,0.93600000,0.07000000,0.07000000,0.02000000,-0.12339752,0.03816600,0.00454018,5.12000000,-20.02000000,0.04000000
149,0,0.34200000,0.08300000,0.94000000,0.03000000,-0.09000000,-0.06000000,-0.12179232,0.03335037,0.00132977,5.12000000,-20.02000000,0.04000000
150,0,0.34100000,0.08700000,0.93700000,-0.15000000,-0.01000000,-0.09000000,-0.12200473,0.03333621,0.00120232,5.12000000,-20.02000000,0.04000000
151,0,0.34200000,0.08300000,0.93700000,0.23000000,-0.18000000,-0.08000000,-0.12167536,0.03307844,0.00108776,5.12000000,-20.02000000,0.04000000
152,0,0.34100000,0.08300000,0.93800000,-0.08000000,0.18000000,-0.23000000,-0.12178511,0.03332539,0.00077221,5.12000000,-20.01000000,0.04000000
153,0,0.33800000,0.08200000,0.93600000,-0.08000000,0.02000000,0.10000000,-0.12189357,0.03335251,0.00090778,5.12000000,-20.01000000,0.04000000
154,0,0.33600000,0.08200000,0.94000000,0.14000000,-0.06000000,-0.11000000,-0.12169292,0.03326651,0.00075012,5.12000000,-20.01000000,0.04000000
155,0,0.34900000,0.08600000,0.93600000,0.01000000,0.23000000,-0.11000000,-0.12115370,0.04566853,-0.00518127,5.12000000,-20.01000000,0.04000000
156,0,0.34300000,0.08300000,0.93900000,0.20000000,-0.24000000,0.06000000,-0.12085127,0.04530561,-0.00509054,5.12000000,-20.01000000,0.04000000
157,0,0.34200000,0.08000000,0.93800000,0.05000000,-0.27000000,-0.08000000,-0.12077935,0.04491722,-0.00520562,5.12000000,-20.01000000,0.04000000
158,0,0.34200000,0.08500000,0.93700000,-0.16000000,0.03000000,-0.07000000,-0.12100485,0.04495950,-0.00530428,5.12000000,-20.01000000,0.04000000
159,0,0.33800000,0.08200000,0.93300000,-0.22000000,-0.16000000,0.11000000,-0.12130647,0.04474014,-0.00515347,5.12000000,-20.01000000,0.04000000
160,0,0.34300000,0.08300000,0.93500000,-0.13000000,-0.15000000,-0.01000000,-0.12149397,0.04452380,-0.00516789,5.12000000,-20.01000000,0.04000000
161,0,0.34100000,0.08000000,0.93900000,0.00000000,0.10000000,0.12000000,-0.12149397,0.04992337,0.00131159,5.12000000,-20.01000000,0.04000000
162,0,0.34200000,0.08700000,0.93700000,-0.06000000,-0.06000000,-0.34000000,-0.12157908,0.04983826,0.00082932,5.12000000,-20.01000000,0.04000000
163,0,0.34500000,0.08400000,0.93500000,-0.01000000,-0.10000000,0.04000000,-0.12159285,0.04970057,0.00088440,5.12000000,-20.01000000,0.04000000
164,0,0.33600000,0.08500000,0.93300000,-0.08000000,-0.04000000,-0.07000000,-0.12170093,0.04964653,0.00078983,5.12000000,-20.01000000,0.04000000
165,0,0.34500000,0.08200000,0.93900000,0.02000000,-0.06000000,0.02000000,-0.12167348,0.04956419,0.00081727,5.12000000,-20.01000000,0.04000000
166,0,0.34300000,0.07900000,0.93900000,0.07000000,0.24000000,0.06000000,-0.12157518,0.04990125,0.00090154,5.12000000,-20.01000000,0.04000000
167,0,0.34300000,0.08300000,0.93700000,0.13000000,0.03000000,-0.01000000,-0.11460892,0.05150884,0.00036567,5.11000000,-20.01000000,0.04000000
168,0,0.34200000,0.08300000,0.93600000,0.23000000,-0.09000000,-0.08000000,-0.11430028,0.05138807,0.00025832,5.11000000,-20.01000000,0.04000000
169,0,0.34700000,0.08400000,0.93700000,0.22000000,0.09000000,-0.12000000,-0.11401103,0.05150640,0.00010055,5.11000000,-20.01000000,0.04000000
170,0,0.34300000,0.08200000,0.93500000,-0.13000000,-0.07000000,0.02000000,-0.11417963,0.05141562,0.00012648,5.11000000,-20.01000000,0.04000000
171,0,0.33500000,0.08700000,0.93400000,0.09000000,0.01000000,-0.39000000,-0.11406289,0.05142859,-0.00037938,5.11000000,-20.01000000,0.04000000
172,0,0.34500000,0.08200000,0.93500000,0.06000000,-0.14000000,-0.00000000,-0.11398261,0.05124129,-0.00037938,5.11000000,-20.01000000,0.04000000
173,0,0.34100000,0.08300000,0.93600000,0.05000000,0.05000000,0.16000000,-0.11123406,0.05398984,0.00841599,5.11000000,-20.01000000,0.04000000
174,0,0.34000000,0.08800000,0.93400000,0.01000000,0.07000000,0.02000000,-0.11122033,0.05408595,0.00844345,5.11000000,-20.01000000,0.04000000
175,0,0.34500000,0.08100000,0.93400000,0.09000000,-0.36000000,-0.10000000,-0.11109417,0.05358131,0.00830327,5.11000000,-20.01000000,0.04000000
176,0,0.34400000,0.08200000,0.93200000,0.07000000,-0.28000000,0.08000000,-0.11099798,0.05319656,0.00841320,5.11000000,-20.01000000,0.04000000
177,0,0.34200000,0.08200000,0.93700000,-0.05000000,0.16000000,0.00000000,-0.11106619,0.05341481,0.00841320,5.11000000,-20.01000000,0.04000000
178,0,0.34200000,0.08600000,0.93300000,-0.16000000,-0.09000000,-0.17000000,-0.11128769,0.05329022,0.00817786,5.11000000,-20.01000000,0.04000000
179,0,0.33900000,0.08700000,0.93900000,0.20000000,0.14000000,0.00000000,-0.10055559,0.06080269,0.00817786,5.11000000,-20.01000000,0.04000000
180,0,0.34600000,0.08200000,0.93700000,0.09000000,-0.27000000,0.04000000,-0.10042621,0.06041456,0.00823536,5.11000000,-20.01000000,0.04000000
181,0,0.33900000,0.08800000,0.93700000,0.00000000,0.03000000,0.05000000,-0.10042621,0.06045603,0.00830448,5.11000000,-20.01000000,0.04000000
182,0,0.33900000,0.08400000,0.93500000,-0.16000000,0.08000000,-0.06000000,-0.10064450,0.06056518,0.00822262,5.11000000,-20.01000000,0.04000000
183,0,0.34200000,0.08600000,0.93700000,0.10000000,-0.08000000,-0.14000000,-0.10050867,0.06045651,0.00803245,5.11000000,-20.01000000,0.04000000
184,0,0.34400000,0.08000000,0.93700000,-0.22000000,-0.02000000,0.22000000,-0.10081412,0.06042874,0.00833790,5.11000000,-20.01000000,0.04000000
185,0,0.34000000,0.08000000,0.93400000,-0.28000000,-0.03000000,0.06000000,-0.11584740,0.05881803,0.01155932,5.11000000,-20.01000000,0.04000000
186,0,0.34100000,0.08400000,0.93500000,0.07000000,0.41000000,0.02000000,-0.11575241,0.05937438,0.01158646,5.11000000,-20.01000000,0.04000000
187,0,0.33600000,0.08900000,0.93200000,-0.05000000,0.00000000,0.10000000,-0.11581400,0.05937438,0.01170963,5.11000000,-20.01000000,0.04000000
188,0,0.34200000,0.08100000,0.93300000,-0.07000000,0.33000000,0.23000000,-0.11589934,0.05977669,0.01199004,5.11000000,-20.01000000,0.04000000
189,0,0.34500000,0.08300000,0.93400000,0.06000000,-0.03000000,0.14000000,-0.11582647,0.05974026,0.01216008,5.11000000,-20.01000000,0.04000000
190,0,0.33900000,0.08000000,0.93700000,-0.02000000,-0.06000000,0.12000000,-0.11585725,0.05964790,0.01234480,5.11000000,-20.01000000,0.04000000
191,0,0.34300000,0.08300000,0.93600000,0.11000000,0.21000000,0.09000000,-0.10980556,0.07120114,0.01729619,5.11000000,-20.01000000,0.04000000
192,0,0.34000000,0.08300000,0.93600000,0.07000000,-0.06000000,0.27000000,-0.10970882,0.07111822,0.01766932,5.11000000,-20.01000000,0.04000000
193,0,0.34400000,0.08200000,0.93600000,-0.04000000,0.06000000,-0.17000000,-0.10975899,0.07119348,0.01745607,5.11000000,-20.01000000,0.04000000
194,0,0.34200000,0.07900000,0.94100000,0.02000000,-0.11000000,-0.13000000,-0.10973394,0.07105568,0.01729321,5.11000000,-20.01000000,0.04000000
195,0,0.33800000,0.07600000,0.93300000,-0.14000000,0.02000000,0.25000000,-0.10990949,0.07108076,0.01760670,5.11000000,-20.01000000,0.04000000
196,0,0.33600000,0.07800000,0.93300000,0.09000000,0.00000000,0.08000000,-0.10979546,0.07108076,0.01770806,5.11000000,-20.01000000,0.04000000
197,0,0.34600000,0.08600000,0.93500000,-0.01000000,-0.04000000,0.14000000,-0.11033597,0.06891870,0.02527527,5.11000000,-20.01000000,0.04000000
198,0,0.34000000,0.08700000,0.93600000,-0.11000000,0.05000000,-0.19000000,-0.11048211,0.06898513,0.02502285,5.11000000,-20.01000000,0.04000000
199,0,0.34600000,0.08500000,0.93400000,-0.08000000,-0.13000000,-0.12000000,-0.11058443,0.06881886,0.02486937,5.11000000,-20.01000000,0.04000000
200,0,0.34300000,0.08200000,0.93100000,0.03000000,0.13000000,-0.09000000,-0.11054239,0.06900106,0.02474323,5.11000000,-20.01000000,0.04000000
201,0,0.34400000,0.08500000,0.93800000,-0.01000000,0.24000000,0.02000000,-0.11055663,0.06934280,0.02477171,5.11000000,-20.01000000,0.04000000
202,0,0.33900000,0.08300000,0.93400000,-0.07000000,-0.15000000,0.16000000,-0.11067024,0.06909935,0.02503139,5.12000000,-20.01000000,0.04000000
203,0,0.34000000,0.08200000,0.93700000,-0.16000000,-0.06000000,-0.25000000,-0.11923654,0.06588699,0.01164655,5.12000000,-20.01000000,0.04000000
204,0,0.34200000,0.08400000,0.93200000,0.18000000,-0.11000000,0.04000000,-0.11900654,0.06574643,0.01169766,5.12000000,-20.01000000,0.04000000
205,0,0.34300000,0.08200000,0.93800000,-0.07000000,0.00000000,0.03000000,-0.11909678,0.06574643,0.01173634,5.12000000,-20.01000000,0.04000000
206,0,0.34300000,0.08600000,0.93100000,-0.02000000,0.00000000,0.16000000,-0.11912400,0.06574643,0.01195406,5.12000000,-20.01000000,0.04000000
207,0,0.34500000,0.08600000,0.93600000,0.23000000,0.15000000,0.01000000,-0.11880302,0.06595577,0.01196801,5.12000000,-20.01000000,0.04000000
208,0,0.34000000,0.08500000,0.93900000,-0.13000000,-0.25000000,0.01000000,-0.11898525,0.06560532,0.01198203,5.12000000,-20.01000000,0.04000000
209,0,0.34300000,0.08100000,0.93100000,0.21000000,-0.26000000,0.10000000,-0.10685122,0.05058224,0.01776014,5.12000000,-20.01000000,0.04000000
210,0,0.34900000,0.08600000,0.94000000,0.15000000,0.12000000,-0.08000000,-0.10662930,0.05075978,0.01764178,5.12000000,-20.01000000,0.04000000
211,0,0.34400000,0.07900000,0.93700000,-0.18000000,0.08000000,0.34000000,-0.10688140,0.05087183,0.01811798,5.12000000,-20.01000000,0.04000000
212,0,0.34100000,0.08500000,0.93700000,-0.02000000,-0.07000000,0.05000000,-0.10690917,0.05077462,0.01818741,5.11000000,-20.02000000,0.04000000
213,0,0.34500000,0.08300000,0.93600000,-0.23000000,-0.04000000,-0.11000000,-0.10722966,0.05071889,0.01803413,5.12000000,-20.02000000,0.04000000
214,0,0.34600000,0.08200000,0.93800000,-0.12000000,0.09000000,0.08000000,-0.10739575,0.05084346,0.01814486,5.12000000,-20.02000000,0.04000000
215,0,0.34400000,0.08500000,0.93900000,-0.17000000,0.12000000,-0.06000000,-0.10763219,0.05101035,0.01806141,5.12000000,-20.02000000,0.04000000
216,0,0.33800000,0.08900000,0.93700000,-0.20000000,0.09000000,0.10000000,-0.11832333,0.05582136,0.02340698,5.12000000,-20.02000000,0.04000000
217,0,0.34500000,0.08600000,0.93600000,0.17000000,0.37000000,0.00000000,-0.11805293,0.05640988,0.02340698,5.12000000,-20.02000000,0.04000000
218,0,0.33800000,0.08200000,0.93400000,0.05000000,-0.19000000,0.47000000,-0.11798732,0.05616058,0.02402368,5.12000000,-20.02000000,0.04000000
219,0,0.33900000,0.08000000,0.93700000,-0.10000000,0.03000000,0.33000000,-0.11811248,0.05619813,0.02443669,5.12000000,-20.02000000,0.04000000
220,0,0.33900000,0.08300000,0.93900000,0.13000000,-0.18000000,-0.07000000,-0.11795129,0.05597495,0.02434990,5.12000000,-20.02000000,0.04000000
221,0,0.34000000,0.08500000,0.93800000,0.07000000,-0.15000000,0.08000000,-0.11785659,0.05577202,0.02445813,5.12000000,-20.02000000,0.04000000
222,0,0.34100000,0.07900000,0.93500000,0.16000000,0.01000000,-0.06000000,-0.10927808,0.05630817,0.02124119,5.12000000,-20.02000000,0.04000000
223,0,0.34000000,0.08100000,0.93700000,-0.04000000,0.10000000,0.09000000,-0.10932960,0.05643695,0.02135710,5.12000000,-20.02000000,0.04000000
224,0,0.33700000,0.08600000,0.93500000,-0.01000000,-0.13000000,0.10000000,-0.10934193,0.05627661,0.02148044,5.12000000,-20.02000000,0.04000000
225,0,0.34100000,0.08400000,0.93700000,-0.01000000,0.14000000,0.12000000,-0.10935428,0.05644955,0.02162868,5.12000000,-20.02000000,0.04000000
226,0,0.34900000,0.08000000,0.93400000,0.11000000,0.22000000,-0.06000000,-0.10921790,0.05672233,0.02155429,5.12000000,-20.02000000,0.04000000
227,0,0.34400000,0.08400000,0.93800000,-0.20000000,-0.12000000,-0.16000000,-0.10947612,0.05656739,0.02134771,5.12000000,-20.02000000,0.04000000
228,0,0.33900000,0.08200000,0.93600000,-0.31000000,-0.11000000,0.01000000,-0.12662093,0.05048375,0.02190077,5.12000000,-20.02000000,0.04000000
229,0,0.33700000,0.08500000,0.93000000,0.10000000,0.08000000,-0.06000000,-0.12645336,0.05061781,0.02180022,5.12000000,-20.02000000,0.04000000
230,0,0.34100000,0.08700000,0.93800000,0.18000000,0.20000000,-0.28000000,-0.12619842,0.05090107,0.02140366,5.12000000,-20.02000000,0.04000000
231,0,0.34300000,0.08200000,0.93700000,-0.07000000,-0.08000000,0.10000000,-0.12629464,0.05079110,0.02154111,5.12000000,-20.02000000,0.04000000
232,0,0.34000000,0.08700000,0.93900000,-0.10000000,-0.06000000,-0.08000000,-0.12643494,0.05070692,0.02142888,5.12000000,-20.02000000,0.04000000
233,0,0.34300000,0.08600000,0.93600000,0.11000000,-0.23000000,0.14000000,-0.12623010,0.05027863,0.02168958,5.12000000,-20.02000000,0.04000000
234,0,0.34200000,0.08200000,0.94100000,-0.24000000,-0.05000000,-0.07000000,-0.13891997,0.04763491,0.01798837,5.12000000,-20.02000000,0.04000000
235,0,0.33800000,0.08000000,0.93800000,-0.12000000,0.10000000,0.34000000,-0.13909404,0.04777997,0.01848159,5.12000000,-20.02000000,0.04000000
236,0,0.34200000,0.08400000,0.93500000,-0.01000000,-0.02000000,0.11000000,-0.13910869,0.04775069,0.01864265,5.12000000,-20.02000000,0.04000000
237,0,0.34400000,0.08100000,0.93400000,-0.08000000,-0.14000000,0.02000000,-0.13923052,0.04753748,0.01867311,5.12000000,-20.02000000,0.04000000
238,0,0.34600000,0.08500000,0.93800000,-0.16000000,0.02000000,0.23000000,-0.13947689,0.04756828,0.01902727,5.12000000,-20.02000000,0.04000000
239,0,0.34500000,0.08400000,0.93600000,0.24000000,-0.15000000,-0.09000000,-0.13907695,0.04731832,0.01887729,5.12000000,-20.02000000,0.04000000
240,0,0.34400000,0.08400000,0.93500000,-0.17000000,-0.12000000,-0.02000000,-0.14809798,0.04095053,0.01781599,5.12000000,-20.02000000,0.04000000
241,0,0.34800000,0.08800000,0.93700000,-0.03000000,0.05000000,-0.14000000,-0.14814751,0.04103307,0.01758486,5.12000000,-20.02000000,0.04000000
242,0,0.34600000,0.08100000,0.93800000,0.06000000,-0.06000000,0.09000000,-0.14805624,0.04094180,0.01772177,5.12000000,-20.02000000,0.04000000
243,0,0.34300000,0.07900000,0.93600000,0.05000000,0.03000000,0.07000000,-0.14798272,0.04098591,0.01782470,5.11000000,-20.02000000,0.04000000
244,0,0.34300000,0.08600000,0.93800000,0.28000000,0.27000000,0.28000000,-0.14755244,0.04140083,0.01825498,5.11000000,-20.02000000,0.04000000
245,0,0.34200000,0.08500000,0.93400000,-0.01000000,-0.01000000,-0.19000000,-0.14756886,0.04138440,0.01794298,5.12000000,-20.02000000,0.04000000
246,0,0.34200000,0.08500000,0.93800000,-0.01000000,0.15000000,-0.29000000,-0.14810671,0.04945211,0.00234542,5.12000000,-20.02000000,0.04000000
247,0,0.34500000,0.08200000,0.93400000,-0.08000000,-0.01000000,-0.02000000,-0.14824927,0.04943429,0.00230978,5.11000000,-20.02000000,0.04000000
248,0,0.34400000,0.08000000,0.93800000,-0.16000000,0.16000000,-0.09000000,-0.14847481,0.04965983,0.00218291,5.11000000,-20.02000000,0.04000000
249,0,0.33800000,0.08500000,0.94000000,-0.14000000,-0.00000000,0.01000000,-0.14867506,0.04965983,0.00219721,5.11000000,-20.02000000,0.04000000
250,0,0.34200000,0.08400000,0.93900000,0.00000000,-0.03000000,-0.06000000,-0.14867506,0.04961735,0.00211225,5.11000000,-20.02000000,0.04000000
251,0,0.34500000,0.08300000,0.93600000,0.37000000,-0.14000000,-0.02000000,-0.14817397,0.04942775,0.00208516,5.12000000,-20.02000000,0.04000000
252,0,0.34200000,0.08200000,0.93700000,-0.27000000,0.00000000,0.10000000,-0.16244922,0.04942775,0.00737230,5.11000000,-20.02000000,0.04000000
253,0,0.34200000,0.08400000,0.93300000,0.34000000,-0.34000000,0.20000000,-0.16198446,0.04896298,0.00764569,5.11000000,-20.02000000,0.04000000
254,0,0.34000000,0.08300000,0.93700000,-0.32000000,0.10000000,-0.09000000,-0.16239671,0.04909181,0.00752974,5.11000000,-20.02000000,0.04000000
255,0,0.33600000,0.08400000,0.93500000,0.19000000,-0.30000000,-0.20000000,-0.16215271,0.04870654,0.00727290,5.12000000,-20.02000000,0.04000000
256,0,0.34100000,0.08900000,0.93700000,0.05000000,0.07000000,-0.17000000,-0.16208733,0.04879807,0.00705061,5.12000000,-20.02000000,0.04000000
257,0,0.34500000,0.08300000,0.94000000,0.11000000,0.04000000,-0.29000000,-0.16193439,0.04885368,0.00664741,5.12000000,-20.02000000,0.04000000
258,0,0.34300000,0.08600000,0.93700000,-0.10000000,-0.03000000,0.03000000,-0.16733642,0.04723308,0.00826802,5.12000000,-20.02000000,0.04000000
259,0,0.34300000,0.08000000,0.93500000,0.05000000,-0.03000000,-0.11000000,-0.16726431,0.04718981,0.00810940,5.12000000,-20.02000000,0.04000000
260,0,0.34700000,0.08700000,0.93500000,0.05000000,-0.00000000,-0.14000000,-0.16719889,0.04718981,0.00792620,5.12000000,-20.02000000,0.03000000
261,0,0.34000000,0.08600000,0.93700000,0.16000000,-0.12000000,0.06000000,-0.16699135,0.04703416,0.00800403,5.12000000,-20.02000000,0.04000000
262,0,0.34200000,0.08800000,0.93800000,-0.30000000,-0.04000000,0.17000000,-0.16738227,0.04698204,0.00822555,5.12000000,-20.02000000,0.04000000
263,0,0.33900000,0.08100000,0.93300000,-0.16000000,0.03000000,-0.11000000,-0.16759019,0.04702103,0.00808260,5.12000000,-20.02000000,0.04000000
264,0,0.33900000,0.08100000,0.93400000,0.04000000,0.20000000,0.12000000,-0.16539529,0.05799550,0.01466729,5.12000000,-20.02000000,0.04000000
265,0,0.34500000,0.08500000,0.93200000,-0.06000000,0.03000000,0.16000000,-0.16547778,0.05803675,0.01488726,5.12000000,-20.02000000,0.04000000
266,0,0.34100000,0.08400000,0.93600000,-0.14000000,-0.02000000,-0.06000000,-0.16565804,0.05801099,0.01481001,5.12000000,-20.02000000,0.04000000
267,0,0.34200000,0.08600000,0.93200000,0.22000000,0.02000000,-0.09000000,-0.16538590,0.05803573,0.01469867,5.12000000,-20.02000000,0.03000000
268,0,0.34300000,0.08600000,0.93800000,0.08000000,0.03000000,0.11000000,-0.16528713,0.05807277,0.01483448,5.12000000,-20.02000000,0.03000000
269,0,0.33900000,0.08500000,0.93500000,0.16000000,0.02000000,-0.09000000,-0.16509039,0.05809737,0.01472382,5.12000000,-20.02000000,0.03000000
270,0,0.34500000,0.08100000,0.93600000,-0.16000000,-0.01000000,0.03000000,-0.17374030,0.05755675,0.01634568,5.12000000,-20.02000000,0.04000000
271,0,0.34100000,0.08700000,0.93300000,-0.20000000,-0.00000000,0.05000000,-0.17399891,0.05755675,0.01641033,5.12000000,-20.02000000,0.04000000
272,0,0.34400000,0.08600000,0.93400000,-0.27000000,-0.20000000,-0.36000000,-0.17432892,0.05731230,0.01597032,5.12000000,-20.02000000,0.04000000
273,0,0.34300000,0.08500000,0.93500000,-0.01000000,0.05000000,-0.06000000,-0.17434108,0.05737309,0.01589738,5.12000000,-20.02000000,0.04000000
274,0,0.34000000,0.08500000,0.93200000,0.05000000,0.06000000,-0.14000000,-0.17427980,0.05744662,0.01572580,5.12000000,-20.02000000,0.04000000
275,0,0.34100000,0.08400000,0.93500000,0.03000000,-0.18000000,0.19000000,-0.17424137,0.05721606,0.01596916,5.12000000,-20.02000000,0.04000000
276,0,0.34100000,0.08200000,0.93700000,-0.28000000,-0.06000000,0.12000000,-0.18950116,0.05394611,0.02250908,5.12000000,-20.02000000,0.04000000
277,0,0.34300000,0.08300000,0.93700000,-0.03000000,-0.03000000,-0.19000000,-0.18954237,0.05390490,0.02224808,5.12000000,-20.02000000,0.04000000
278,0,0.34100000,0.07900000,0.93300000,0.03000000,0.13000000,0.09000000,-0.18950376,0.05407222,0.02236392,5.11000000,-20.02000000,0.04000000
279,0,0.34100000,0.08900000,0.93800000,-0.08000000,0.11000000,-0.31000000,-0.18960550,0.05421212,0.02196966,5.12000000,-20.02000000,0.04000000
280,0,0.34100000,0.08300000,0.93900000,0.12000000,-0.04000000,0.08000000,-0.18944379,0.05415822,0.02207747,5.11000000,-20.02000000,0.04000000
281,0,0.34500000,0.08700000,0.93500000,-0.03000000,0.18000000,0.04000000,-0.18948386,0.05439865,0.02213090,5.12000000,-20.02000000,0.04000000
282,0,0.34100000,0.08400000,0.93400000,-0.04000000,-0.06000000,0.08000000,-0.19168312,0.05109975,0.02652942,5.12000000,-20.02000000,0.04000000
283,0,0.34200000,0.08700000,0.93700000,-0.01000000,-0.08000000,0.04000000,-0.19169663,0.05099163,0.02658348,5.12000000,-20.02000000,0.04000000
284,0,0.34500000,0.08300000,0.93500000,-0.00000000,0.05000000,0.00000000,-0.19169663,0.05105567,0.02658348,5.12000000,-20.02000000,0.04000000
285,0,0.34200000,0.08200000,0.93800000,-0.32000000,-0.15000000,-0.02000000,-0.19211873,0.05085781,0.02655710,5.12000000,-20.02000000,0.04000000
286,0,0.34400000,0.08500000,0.93600000,0.09000000,-0.05000000,0.11000000,-0.19200003,0.05079187,0.02670217,5.12000000,-20.02000000,0.04000000
287,0,0.34000000,0.07900000,0.93500000,-0.11000000,-0.01000000,0.11000000,-0.19220112,0.05077359,0.02690325,5.12000000,-20.02000000,0.04000000
288,0,0.34300000,0.08200000,0.93500000,-0.14000000,-0.03000000,0.05000000,-0.19965972,0.04917532,0.02956704,5.12000000,-20.02000000,0.04000000
289,0,0.34400000,0.08200000,0.93600000,0.16000000,0.12000000,-0.02000000,-0.19944459,0.04933667,0.02954015,5.12000000,-20.02000000,0.04000000
290,0,0.34600000,0.08200000,0.93500000,-0.10000000,-0.08000000,0.22000000,-0.19957342,0.04923360,0.02982357,5.12000000,-20.02000000,0.04000000
291,0,0.34300000,0.08500000,0.93800000,0.10000000,-0.01000000,-0.20000000,-0.19944433,0.04922070,0.02956539,5.12000000,-20.02000000,0.04000000
292,0,0.34000000,0.08400000,0.93600000,0.18000000,0.36000000,0.18000000,-0.19921171,0.04968593,0.02979801,5.12000000,-20.02000000,0.04000000
293,0,0.34200000,0.08500000,0.93600000,-0.14000000,-0.15000000,0.02000000,-0.19939958,0.04948465,0.02982485,5.12000000,-20.02000000,0.04000000
294,0,0.34300000,0.08500000,0.93800000,-0.09000000,0.10000000,0.00000000,-0.20427552,0.05490236,0.02982485,5.12000000,-20.02000000,0.04000000
295,0,0.34300000,0.08500000,0.93400000,0.19000000,0.02000000,0.08000000,-0.20397462,0.05493403,0.02995154,5.12000000,-20.02000000,0.04000000
296,0,0.34400000,0.08300000,0.93600000,0.02000000,0.15000000,0.08000000,-0.20394578,0.05515031,0.03006689,5.12000000,-20.02000000,0.04000000
297,0,0.34100000,0.08600000,0.93500000,0.19000000,-0.11000000,0.02000000,-0.20367057,0.05499097,0.03009586,5.12000000,-20.02000000,0.04000000
298,0,0.34100000,0.08300000,0.93500000,-0.06000000,-0.07000000,0.11000000,-0.20376007,0.05488656,0.03025994,5.12000000,-20.02000000,0.03000000
299,0,0.33800000,0.08100000,0.93400000,-0.06000000,-0.03000000,0.00000000,-0.20384844,0.05484237,0.03025994,5.12000000,-20.02000000,0.04000000
300,0,0.34100000,0.08300000,0.93900000,-0.14000000,-0.04000000,-0.10000000,-0.21140610,0.05268304,0.02486161,5.12000000,-20.02000000,0.03000000
301,0,0.34200000,0.08700000,0.93500000,0.05000000,-0.00000000,-0.05000000,-0.21133142,0.05268304,0.02478693,5.12000000,-20.02000000,0.03000000
302,0,0.34100000,0.08600000,0.93700000,-0.14000000,-0.15000000,0.14000000,-0.21151846,0.05248265,0.02497396,5.12000000,-20.02000000,0.03000000
303,0,0.34300000,0.07700000,0.93400000,0.05000000,0.07000000,-0.26000000,-0.21145405,0.05257283,0.02463901,5.12000000,-20.02000000,0.04000000
304,0,0.34400000,0.08600000,0.94000000,0.11000000,0.16000000,-0.03000000,-0.21131231,0.05277899,0.02460036,5.12000000,-20.02000000,0.04000000
305,0,0.34300000,0.08700000,0.93600000,0.23000000,-0.27000000,-0.00000000,-0.21099621,0.05240791,0.02460036,5.12000000,-20.02000000,0.03000000
306,0,0.33900000,0.08100000,0.93400000,0.06000000,-0.06000000,-0.15000000,-0.20775505,0.04916676,0.01649746,5.12000000,-20.02000000,0.04000000
307,0,0.34000000,0.08500000,0.93400000,0.11000000,0.06000000,-0.08000000,-0.20760225,0.04925010,0.01638633,5.12000000,-20.02000000,0.04000000
308,0,0.34100000,0.08200000,0.93700000,-0.08000000,-0.06000000,0.06000000,-0.20770796,0.04917082,0.01646561,5.11000000,-20.02000000,0.04000000
309,0,0.34200000,0.08600000,0.93500000,-0.09000000,0.02000000,0.10000000,-0.20782920,0.04919776,0.01660033,5.11000000,-20.02000000,0.04000000
310,0,0.34200000,0.08700000,0.93600000,0.16000000,0.15000000,0.03000000,-0.20762228,0.04939175,0.01663913,5.11000000,-20.02000000,0.04000000
311,0,0.33900000,0.08000000,0.93800000,-0.02000000,0.05000000,0.10000000,-0.20766730,0.04950431,0.01686423,5.11000000,-20.02000000,0.04000000
312,0,0.34700000,0.08300000,0.93600000,-0.22000000,-0.11000000,0.04000000,-0.21930675,0.04368458,0.01898049,5.11000000,-20.02000000,0.04000000
313,0,0.34700000,0.08000000,0.93500000,-0.04000000,0.10000000,-0.13000000,-0.21936157,0.04382161,0.01880236,5.11000000,-20.02000000,0.04000000
314,0,0.34300000,0.08300000,0.93200000,0.12000000,0.02000000,-0.06000000,-0.21916371,0.04385458,0.01870343,5.11000000,-20.02000000,0.04000000
315,0,0.34100000,0.08300000,0.93700000,-0.15000000,0.05000000,0.11000000,-0.21936726,0.04392243,0.01885269,5.11000000,-20.02000000,0.04000000
316,0,0.34300000,0.08100000,0.93500000,0.09000000,0.20000000,0.01000000,-0.21924856,0.04418619,0.01886588,5.11000000,-20.02000000,0.04000000
317,0,0.34600000,0.08400000,0.93300000,-0.19000000,-0.09000000,0.19000000,-0.21949664,0.04406868,0.01911396,5.11000000,-20.02000000,0.04000000
318,0,0.34400000,0.08500000,0.93400000,-0.00000000,-0.17000000,0.16000000,-0.21949664,0.03482869,0.02781042,5.11000000,-20.02000000,0.04000000
319,0,0.33900000,0.08600000,0.93500000,-0.28000000,0.11000000,0.08000000,-0.21988667,0.03498191,0.02792185,5.11000000,-20.02000000,0.04000000
320,0,0.34200000,0.08600000,0.93400000,-0.25000000,0.12000000,0.06000000,-0.22021327,0.03513868,0.02800024,5.11000000,-20.02000000,0.04000000
321,0,0.34000000,0.08500000,0.93500000,0.05000000,-0.28000000,0.01000000,-0.22014913,0.03477950,0.02801307,5.11000000,-20.02000000,0.04000000
322,0,0.34000000,0.07900000,0.93600000,0.07000000,0.00000000,-0.05000000,-0.22005975,0.03477950,0.02794923,5.11000000,-20.02000000,0.04000000
323,0,0.34100000,0.08300000,0.93200000,-0.07000000,0.09000000,-0.05000000,-0.22015230,0.03489849,0.02788312,5.11000000,-20.02000000,0.04000000
324,0,0.34100000,0.08200000,0.93500000,-0.14000000,0.17000000,0.02000000,-0.22770813,0.04407343,0.02896252,5.11000000,-20.02000000,0.04000000
325,0,0.34600000,0.08200000,0.93500000,-0.02000000,-0.20000000,-0.06000000,-0.22773695,0.04378516,0.02887604,5.11000000,-20.02000000,0.04000000
326,0,0.34200000,0.08500000,0.94000000,-0.18000000,-0.05000000,-0.05000000,-0.22798266,0.04371690,0.02880779,5.11000000,-20.02000000,0.04000000
327,0,0.34300000,0.08500000,0.93800000,-0.10000000,0.29000000,0.01000000,-0.22811809,0.04410966,0.02882133,5.11000000,-20.02000000,0.04000000
328,0,0.34400000,0.08200000,0.94000000,0.17000000,0.26000000,-0.21000000,-0.22789880,0.04444504,0.02855044,5.11000000,-20.02000000,0.04000000
329,0,0.34200000,0.08700000,0.93200000,-0.11000000,0.38000000,-0.21000000,-0.22806068,0.04500426,0.02824140,5.11000000,-20.02000000,0.04000000
330,0,0.34100000,0.08500000,0.93200000,0.15000000,0.05000000,0.13000000,-0.21956422,0.04783642,0.03560501,5.11000000,-20.02000000,0.04000000
331,0,0.33700000,0.08800000,0.93900000,-0.02000000,-0.10000000,-0.29000000,-0.21959074,0.04770380,0.03522041,5.11000000,-20.02000000,0.04000000
332,0,0.34500000,0.08300000,0.93900000,-0.05000000,-0.07000000,0.23000000,-0.21965493,0.04761393,0.03551568,5.11000000,-20.02000000,0.04000000
333,0,0.34700000,0.08200000,0.93500000,-0.08000000,0.00000000,-0.01000000,-0.21976081,0.04761393,0.03550244,5.11000000,-20.02000000,0.04000000
334,0,0.34300000,0.08400000,0.93800000,-0.07000000,0.15000000,0.00000000,-0.21985089,0.04780696,0.03550244,5.11000000,-20.02000000,0.04000000
335,0,0.34600000,0.08200000,0.94200000,-0.10000000,0.06000000,-0.17000000,-0.21997819,0.04788334,0.03528603,5.11000000,-20.02000000,0.04000000
336,0,0.34300000,0.08300000,0.93700000,0.10000000,0.01000000,0.00000000,-0.21984708,0.04789645,0.03528603,5.11000000,-20.02000000,0.04000000
337,0,0.34300000,0.08100000,0.93500000,0.09000000,-0.02000000,0.10000000,-0.21490556,0.04679834,0.04077660,5.11000000,-20.02000000,0.04000000
338,0,0.34000000,0.08300000,0.93800000,0.09000000,0.00000000,0.01000000,-0.21477910,0.04679834,0.04079065,5.11000000,-20.02000000,0.04000000
339,0,0.34300000,0.08500000,0.93500000,0.01000000,0.14000000,0.07000000,-0.21476489,0.04699729,0.04089013,5.11000000,-20.02000000,0.04000000
340,0,0.34200000,0.07700000,0.93800000,0.09000000,0.01000000,0.11000000,-0.21464195,0.04701095,0.04104039,5.11000000,-20.02000000,0.04000000
341,0,0.34500000,0.08000000,0.93600000,0.06000000,-0.06000000,-0.19000000,-0.21456039,0.04692939,0.04078212,5.11000000,-20.02000000,0.04000000
342,0,0.34100000,0.08000000,0.93700000,0.05000000,-0.21000000,-0.17000000,-0.21449106,0.04663822,0.04054641,5.11000000,-20.02000000,0.04000000
343,0,0.34800000,0.08000000,0.93600000,-0.26000000,-0.02000000,0.34000000,-0.22843504,0.04556561,0.05878085,5.11000000,-20.02000000,0.04000000
344,0,0.34400000,0.08200000,0.93600000,-0.12000000,0.05000000,-0.11000000,-0.22860540,0.04563659,0.05862469,5.11000000,-20.02000000,0.04000000
345,0,0.34200000,0.08400000,0.93700000,0.08000000,-0.01000000,-0.08000000,-0.22849675,0.04562301,0.05851603,5.11000000,-20.02000000,0.04000000
346,0,0.34000000,0.08500000,0.93600000,0.05000000,0.18000000,-0.05000000,-0.22842942,0.04586542,0.05844870,5.11000000,-20.02000000,0.04000000
347,0,0.34300000,0.08000000,0.93600000,0.06000000,0.01000000,0.06000000,-0.22834160,0.04588005,0.05853651,5.11000000,-20.02000000,0.04000000
348,0,0.33800000,0.08200000,0.93600000,0.07000000,0.14000000,0.15000000,-0.22824154,0.04608017,0.05875092,5.11000000,-20.02000000,0.04000000
349,0,0.34400000,0.08400000,0.94100000,0.01000000,0.03000000,-0.01000000,-0.22770566,0.04768781,0.05821504,5.11000000,-20.02000000,0.04000000
350,0,0.34400000,0.08000000,0.93600000,-0.12000000,0.07000000,0.18000000,-0.22789731,0.04779960,0.05850251,5.11000000,-20.02000000,0.04000000
351,0,0.34100000,0.08700000,0.93700000,-0.05000000,-0.22000000,0.09000000,-0.22796676,0.04749399,0.05862753,5.11000000,-20.02000000,0.04000000
352,0,0.34100000,0.08600000,0.93500000,-0.04000000,0.05000000,-0.09000000,-0.22802277,0.04756400,0.05850152,5.11000000,-20.02000000,0.04000000
353,0,0.33900000,0.08000000,0.93300000,0.20000000,-0.15000000,-0.06000000,-0.22768148,0.04730803,0.05839913,5.11000000,-20.02000000,0.04000000
354,0,0.34400000,0.08600000,0.93300000,0.00000000,-0.10000000,0.11000000,-0.22768148,0.04715638,0.05856594,5.11000000,-20.02000000,0.04000000
355,0,0.34000000,0.08100000,0.93900000,0.04000000,-0.32000000,-0.23000000,-0.22552191,0.02987989,0.04614847,5.11000000,-20.02000000,0.04000000
356,0,0.33900000,0.08500000,0.93300000,-0.06000000,-0.32000000,-0.04000000,-0.22562270,0.02934237,0.04608127,5.11000000,-20.02000000,0.04000000
357,0,0.34200000,0.08500000,0.93400000,0.01000000,-0.09000000,0.07000000,-0.22560807,0.02921070,0.04618369,5.11000000,-20.02000000,0.04000000
358,0,0.34300000,0.08100000,0.93500000,0.01000000,0.09000000,-0.09000000,-0.22559393,0.02933797,0.04605641,5.10000000,-20.02000000,0.04000000
359,0,0.34700000,0.08300000,0.93700000,0.11000000,0.03000000,0.03000000,-0.22544354,0.02937899,0.04609743,5.11000000,-20.02000000,0.04000000
360,0,0.34600000,0.08500000,0.93500000,0.23000000,0.15000000,-0.02000000,-0.22511066,0.02959608,0.04606848,5.11000000,-20.02000000,0.04000000
361,0,0.34600000,0.08400000,0.93100000,-0.13000000,-0.15000000,0.07000000,-0.23203061,0.02161152,0.04979461,5.11000000,-20.02000000,0.04000000
362,0,0.33800000,0.07900000,0.93500000,-0.12000000,0.23000000,-0.32000000,-0.23220766,0.02195087,0.04932247,5.11000000,-20.02000000,0.04000000
363,0,0.34200000,0.07900000,0.93600000,-0.13000000,0.17000000,0.05000000,-0.23238809,0.02218682,0.04939187,5.11000000,-20.02000000,0.04000000
364,0,0.34400000,0.08600000,0.93500000,0.15000000,0.20000000,0.01000000,-0.23218147,0.02246231,0.04940564,5.11000000,-20.02000000,0.04000000
365,0,0.34100000,0.08500000,0.93900000,0.11000000,0.06000000,0.10000000,-0.23203276,0.02254343,0.04954083,5.11000000,-20.02000000,0.04000000
366,0,0.34600000,0.08500000,0.93200000,0.09000000,0.02000000,-0.16000000,-0.23190345,0.02257217,0.04931094,5.11000000,-20.02000000,0.04000000
367,0,0.34200000,0.08500000,0.93600000,-0.03000000,0.14000000,0.20000000,-0.23350779,0.03005910,0.06000657,5.11000000,-20.02000000,0.04000000
368,0,0.34200000,0.08300000,0.93800000,-0.03000000,0.25000000,0.16000000,-0.23354770,0.03039166,0.06021940,5.11000000,-20.02000000,0.04000000
369,0,0.33900000,0.08300000,0.93600000,-0.20000000,-0.25000000,-0.15000000,-0.23382266,0.03004795,0.06001318,5.11000000,-20.02000000,0.04000000
370,0,0.33900000,0.08200000,0.93300000,0.10000000,-0.03000000,0.22000000,-0.23368821,0.03000762,0.06030898,5.11000000,-20.02000000,0.04000000
371,0,0.34100000,0.08500000,0.93700000,0.01000000,-0.03000000,0.20000000,-0.23367497,0.02996790,0.06057374,5.11000000,-20.02000000,0.04000000
372,0,0.34200000,0.08300000,0.93800000,-0.06000000,0.06000000,-0.11000000,-0.23375278,0.03004572,0.06043109,5.11000000,-20.02000000,0.04000000
373,0,0.33900000,0.08500000,0.93800000,0.01000000,-0.10000000,0.03000000,-0.23320591,0.02457698,0.06207171,5.11000000,-20.02000000,0.04000000
374,0,0.34000000,0.08200000,0.93700000,-0.10000000,0.06000000,-0.02000000,-0.23334008,0.02465748,0.06204487,5.11000000,-20.02000000,0.04000000
375,0,0.34200000,0.08300000,0.93600000,0.29000000,-0.01000000,-0.22000000,-0.23296240,0.02464446,0.06175836,5.11000000,-20.02000000,0.04000000
376,0,0.34700000,0.08500000,0.93200000,-0.19000000,-0.30000000,-0.09000000,-0.23323317,0.02421692,0.06163010,5.11000000,-20.02000000,0.04000000
377,0,0.33800000,0.08000000,0.93100000,0.20000000,-0.08000000,0.16000000,-0.23297084,0.02411199,0.06183996,5.11000000,-20.02000000,0.04000000
378,0,0.34200000,0.08100000,0.93200000,-0.09000000,0.15000000,0.18000000,-0.23308786,0.02430702,0.06207399,5.11000000,-20.02000000,0.04000000
379,0,0.34400000,0.08300000,0.93700000,0.07000000,-0.07000000,-0.13000000,-0.22931075,0.02052990,0.05505936,5.11000000,-20.02000000,0.04000000
380,0,0.34500000,0.08300000,0.93100000,0.01000000,0.42000000,0.04000000,-0.22929649,0.02112866,0.05511638,5.11000000,-20.02000000,0.04000000
381,0,0.34600000,0.08200000,0.93400000,0.10000000,-0.20000000,0.17000000,-0.22914842,0.02083252,0.05536810,5.11000000,-20.02000000,0.04000000
382,0,0.34100000,0.08500000,0.93400000,0.32000000,-0.25000000,0.16000000,-0.22868460,0.02047016,0.05560001,5.11000000,-20.02000000,0.04000000
383,0,0.34500000,0.08200000,0.93600000,0.31000000,0.01000000,0.05000000,-0.22825648,0.02048397,0.05566906,5.10000000,-20.03000000,0.04000000
384,0,0.34600000,0.08000000,0.93600000,-0.05000000,-0.12000000,-0.16000000,-0.22832859,0.02031092,0.05543833,5.10000000,-20.03000000,0.04000000
385,0,0.34700000,0.08600000,0.92900000,0.14000000,-0.00000000,-0.11000000,-0.22084476,0.02031092,0.04955818,5.10000000,-20.03000000,0.04000000
386,0,0.34400000,0.08500000,0.93500000,-0.17000000,0.14000000,0.07000000,-0.22106782,0.02049462,0.04965003,5.10000000,-20.03000000,0.04000000
387,0,0.34200000,0.08700000,0.93900000,-0.14000000,-0.28000000,0.05000000,-0.22124010,0.02015006,0.04971155,5.10000000,-20.03000000,0.04000000
388,0,0.34300000,0.08300000,0.93600000,-0.14000000,0.10000000,-0.03000000,-0.22141235,0.02027309,0.04967464,5.10000000,-20.03000000,0.04000000
389,0,0.34100000,0.08200000,0.93600000,-0.05000000,-0.13000000,0.07000000,-0.22147328,0.02011467,0.04975995,5.10000000,-20.03000000,0.04000000
390,0,0.34200000,0.08600000,0.94000000,-0.22000000,-0.08000000,-0.17000000,-0.22174416,0.02001616,0.04955063,5.10000000,-20.03000000,0.04000000
391,0,0.34400000,0.08200000,0.93500000,-0.06000000,0.11000000,0.20000000,-0.22505025,0.02607733,0.06057093,5.10000000,-20.03000000,0.04000000
392,0,0.34500000,0.08400000,0.93300000,-0.17000000,-0.06000000,0.05000000,-0.22526663,0.02600096,0.06063457,5.10000000,-20.03000000,0.04000000
393,0,0.34000000,0.08400000,0.93700000,-0.04000000,-0.28000000,0.01000000,-0.22531545,0.02565920,0.06064677,5.10000000,-20.03000000,0.04000000
394,0,0.34300000,0.08500000,0.93500000,0.17000000,0.09000000,-0.04000000,-0.22510463,0.02577081,0.06059717,5.10000000,-20.03000000,0.04000000
395,0,0.34500000,0.08500000,0.93700000,-0.06000000,0.21000000,0.09000000,-0.22517825,0.02602848,0.06070760,5.10000000,-20.03000000,0.04000000
396,0,0.34900000,0.08200000,0.93800000,0.03000000,-0.16000000,0.17000000,-0.22514122,0.02583098,0.06091745,5.10000000,-20.03000000,0.04000000
397,0,0.33900000,0.08300000,0.93400000,-0.26000000,-0.01000000,-0.05000000,-0.23928096,0.02528714,0.05819827,5.10000000,-20.03000000,0.04000000
398,0,0.34300000,0.08600000,0.93100000,-0.13000000,-0.04000000,-0.03000000,-0.23945321,0.02523414,0.05815852,5.10000000,-20.03000000,0.04000000
399,0,0.34500000,0.08500000,0.93500000,-0.05000000,-0.05000000,-0.08000000,-0.23952159,0.02516576,0.05804910,5.10000000,-20.03000000,0.04000000
400,0,0.33500000,0.08100000,0.93200000,-0.17000000,0.04000000,0.11000000,-0.23974518,0.02521837,0.05819378,5.10000000,-20.03000000,0.04000000
401,0,0.34600000,0.08500000,0.93300000,-0.07000000,-0.19000000,0.06000000,-0.23983846,0.02496517,0.05827373,5.10000000,-20.03000000,0.04000000
402,0,0.34700000,0.08200000,0.93500000,0.15000000,-0.20000000,0.06000000,-0.23964197,0.02470317,0.05835233,5.10000000,-20.03000000,0.05000000
403,0,0.34300000,0.08300000,0.93800000,0.21000000,0.27000000,-0.10000000,-0.22827112,0.03932283,0.05293765,5.10000000,-20.03000000,0.04000000
404,0,0.34200000,0.08000000,0.93300000,-0.04000000,-0.05000000,-0.13000000,-0.22832974,0.03924956,0.05274714,5.10000000,-20.03000000,0.05000000
405,0,0.34400000,0.08500000,0.93600000,0.13000000,0.09000000,0.43000000,-0.22815892,0.03936782,0.05331217,5.10000000,-20.03000000,0.05000000
406,0,0.34100000,0.08500000,0.93700000,0.00000000,0.03000000,-0.00000000,-0.22815892,0.03940636,0.05331217,5.10000000,-20.03000000,0.04000000
407,0,0.33600000,0.08000000,0.93100000,-0.02000000,0.03000000,-0.08000000,-0.22818452,0.03944476,0.05320978,5.10000000,-20.03000000,0.04000000
408,0,0.34600000,0.08600000,0.93500000,-0.01000000,-0.02000000,-0.22000000,-0.22819835,0.03941710,0.05290548,5.10000000,-20.03000000,0.05000000
409,0,0.34500000,0.08700000,0.93700000,-0.07000000,-0.09000000,0.04000000,-0.23204849,0.03446691,0.05510556,5.10000000,-20.03000000,0.05000000
410,0,0.34200000,0.08500000,0.93900000,0.21000000,0.25000000,0.07000000,-0.23167426,0.03491242,0.05523031,5.10000000,-20.03000000,0.05000000
411,0,0.34100000,0.08400000,0.93700000,0.16000000,-0.03000000,-0.04000000,-0.23133684,0.03484915,0.05514595,5.10000000,-20.03000000,0.05000000
412,0,0.34400000,0.08500000,0.93800000,0.16000000,-0.11000000,0.08000000,-0.23110451,0.03468942,0.05526212,5.10000000,-20.03000000,0.04000000
413,0,0.34200000,0.08500000,0.93600000,0.10000000,0.02000000,0.06000000,-0.23095675,0.03471898,0.05535077,5.10000000,-20.03000000,0.04000000
414,0,0.34400000,0.08600000,0.93500000,0.03000000,0.02000000,-0.04000000,-0.23091348,0.03474782,0.05529308,5.10000000,-20.03000000,0.04000000
415,0,0.34600000,0.08400000,0.93600000,0.03000000,-0.07000000,-0.00000000,-0.22935853,0.03111961,0.05529308,5.10000000,-20.04000000,0.05000000
416,0,0.34300000,0.08500000,0.93200000,0.08000000,0.21000000,-0.05000000,-0.22925667,0.03138700,0.05522942,5.10000000,-20.03000000,0.04000000
417,0,0.34100000,0.08800000,0.93700000,0.11000000,-0.02000000,0.06000000,-0.22911234,0.03136075,0.05530814,5.10000000,-20.03000000,0.04000000
418,0,0.34300000,0.08500000,0.93500000,0.08000000,0.06000000,-0.14000000,-0.22901172,0.03143622,0.05513206,5.10000000,-20.03000000,0.04000000
419,0,0.34600000,0.08900000,0.93500000,0.11000000,0.14000000,0.01000000,-0.22887604,0.03160890,0.05514439,5.10000000,-20.04000000,0.04000000
420,0,0.34700000,0.08500000,0.93800000,-0.06000000,-0.17000000,-0.03000000,-0.22895002,0.03139930,0.05510740,5.11000000,-20.04000000,0.04000000
421,0,0.34500000,0.08400000,0.93800000,0.02000000,-0.03000000,-0.11000000,-0.22786103,0.02976581,0.04911797,5.11000000,-20.04000000,0.04000000
422,0,0.34000000,0.08300000,0.94200000,0.10000000,0.08000000,0.04000000,-0.22773411,0.02986735,0.04916873,5.11000000,-20.04000000,0.04000000
423,0,0.34300000,0.07900000,0.93600000,-0.01000000,0.21000000,-0.15000000,-0.22774647,0.03012702,0.04898325,5.11000000,-20.04000000,0.04000000
424,0,0.34100000,0.08700000,0.93400000,-0.03000000,0.00000000,0.11000000,-0.22778324,0.03012702,0.04911807,5.11000000,-20.04000000,0.04000000
425,0,0.34200000,0.08700000,0.93400000,-0.17000000,0.09000000,-0.17000000,-0.22799013,0.03023655,0.04891118,5.11000000,-20.04000000,0.04000000
426,0,0.34500000,0.08900000,0.93400000,-0.16000000,0.21000000,0.05000000,-0.22818744,0.03049553,0.04897284,5.11000000,-20.04000000,0.04000000
427,0,0.34100000,0.08700000,0.93600000,-0.13000000,0.04000000,-0.08000000,-0.23536235,0.03270319,0.04455751,5.11000000,-20.04000000,0.04000000
428,0,0.34400000,0.08200000,0.93600000,-0.23000000,-0.02000000,0.08000000,-0.23569024,0.03267468,0.04467156,5.10000000,-20.04000000,0.04000000
429,0,0.34100000,0.08700000,0.94000000,-0.08000000,0.01000000,0.20000000,-0.23581238,0.03268995,0.04497690,5.10000000,-20.04000000,0.04000000
430,0,0.34500000,0.08500000,0.94000000,-0.06000000,-0.18000000,-0.17000000,-0.23589551,0.03244055,0.04474135,5.10000000,-20.04000000,0.04000000
431,0,0.34800000,0.08300000,0.93500000,-0.01000000,0.03000000,0.09000000,-0.23590915,0.03248148,0.04486416,5.11000000,-20.04000000,0.04000000
432,0,0.34000000,0.08000000,0.93700000,-0.12000000,-0.23000000,0.16000000,-0.23607802,0.03215782,0.04508932,5.10000000,-20.04000000,0.04000000
433,0,0.34300000,0.08400000,0.93300000,-0.24000000,0.11000000,-0.08000000,-0.24892364,0.03804539,0.04080745,5.10000000,-20.04000000,0.04000000
434,0,0.34000000,0.08900000,0.93700000,-0.25000000,-0.01000000,-0.05000000,-0.24929292,0.03803062,0.04073360,5.10000000,-20.04000000,0.04000000
435,0,0.34300000,0.08700000,0.93400000,0.01000000,0.03000000,-0.08000000,-0.24927918,0.03807184,0.04062367,5.10000000,-20.04000000,0.04000000
436,0,0.34700000,0.08100000,0.93600000,-0.14000000,0.03000000,-0.10000000,-0.24947048,0.03811284,0.04048702,5.10000000,-20.04000000,0.04000000
437,0,0.34500000,0.08500000,0.94100000,-0.02000000,0.15000000,-0.19000000,-0.24949790,0.03831842,0.04022662,5.10000000,-20.04000000,0.04000000
438,0,0.34500000,0.08000000,0.93000000,0.06000000,-0.05000000,-0.08000000,-0.24941190,0.03824675,0.04011196,5.10000000,-20.04000000,0.04000000
439,0,0.34200000,0.09000000,0.93700000,0.08000000,-0.03000000,0.11000000,-0.24504611,0.03660958,0.04611493,5.10000000,-20.04000000,0.04000000
440,0,0.34200000,0.08000000,0.93600000,-0.05000000,0.17000000,-0.06000000,-0.24512034,0.03686199,0.04602584,5.10000000,-20.04000000,0.04000000
441,0,0.34000000,0.08600000,0.94000000,-0.01000000,-0.16000000,-0.11000000,-0.24513411,0.03664175,0.04587443,5.10000000,-20.04000000,0.04000000
442,0,0.34400000,0.08900000,0.93400000,0.01000000,-0.13000000,-0.04000000,-0.24512029,0.03646218,0.04581918,5.10000000,-20.04000000,0.04000000
443,0,0.34300000,0.08500000,0.93400000,-0.13000000,-0.03000000,-0.05000000,-0.24529468,0.03642194,0.04575211,5.10000000,-20.04000000,0.04000000
444,0,0.34700000,0.08100000,0.94000000,0.04000000,-0.12000000,0.13000000,-0.24524104,0.03626102,0.04592643,5.10000000,-20.04000000,0.04000000
445,0,0.33700000,0.08500000,0.93100000,0.02000000,0.04000000,-0.03000000,-0.24417074,0.03840164,0.04432097,5.10000000,-20.04000000,0.04000000
446,0,0.34400000,0.08500000,0.93300000,0.15000000,-0.00000000,0.07000000,-0.24397113,0.03840164,0.04441412,5.10000000,-20.04000000,0.04000000
447,0,0.34100000,0.08500000,0.93700000,0.08000000,-0.08000000,0.02000000,-0.24386906,0.03829957,0.04443964,5.10000000,-20.04000000,0.04000000
448,0,0.34100000,0.08600000,0.93100000,-0.05000000,-0.11000000,-0.11000000,-0.24393332,0.03815820,0.04429827,5.10000000,-20.04000000,0.04000000
449,0,0.34500000,0.08200000,0.93200000,0.12000000,0.05000000,-0.21000000,-0.24377698,0.03822334,0.04402468,5.10000000,-20.04000000,0.04000000
450,0,0.33900000,0.08000000,0.93200000,0.10000000,0.36000000,0.15000000,-0.24364758,0.03868918,0.04421878,5.10000000,-20.04000000,0.04000000
451,0,0.33900000,0.08800000,0.93300000,0.24000000,0.11000000,-0.16000000,-0.23068472,0.04463049,0.03557687,5.10000000,-20.04000000,0.04000000
452,0,0.34200000,0.08500000,0.93500000,-0.19000000,0.03000000,0.06000000,-0.23094648,0.04467182,0.03565953,5.10000000,-20.04000000,0.04000000
453,0,0.33500000,0.08400000,0.93600000,-0.02000000,-0.06000000,-0.17000000,-0.23097273,0.04459308,0.03543643,5.10000000,-20.04000000,0.05000000
454,0,0.34400000,0.08500000,0.93400000,-0.07000000,-0.03000000,-0.14000000,-0.23106232,0.04455468,0.03525724,5.10000000,-20.04000000,0.05000000
455,0,0.34100000,0.08500000,0.93500000,-0.40000000,0.01000000,0.11000000,-0.23158402,0.04456772,0.03540071,5.10000000,-20.04000000,0.04000000
456,0,0.33700000,0.08200000,0.93900000,0.01000000,0.12000000,-0.05000000,-0.23157104,0.04472349,0.03533581,5.10000000,-20.04000000,0.04000000
457,0,0.34300000,0.08700000,0.93500000,0.02000000,-0.11000000,-0.00000000,-0.23042590,0.03842524,0.03533581,5.10000000,-20.04000000,0.04000000
458,0,0.34100000,0.08300000,0.93700000,0.12000000,-0.12000000,-0.23000000,-0.23024482,0.03824415,0.03498872,5.10000000,-20.04000000,0.04000000
459,0,0.33900000,0.08300000,0.93400000,0.02000000,-0.01000000,0.13000000,-0.23021737,0.03823043,0.03516711,5.10000000,-20.04000000,0.04000000
460,0,0.33900000,0.08300000,0.93800000,0.02000000,-0.07000000,-0.01000000,-0.23018987,0.03813416,0.03515336,5.10000000,-20.04000000,0.04000000
461,0,0.34100000,0.08300000,0.94000000,-0.07000000,-0.08000000,-0.40000000,-0.23028492,0.03802553,0.03461020,5.10000000,-20.04000000,0.04000000
462,0,0.34200000,0.08100000,0.93300000,-0.04000000,-0.00000000,-0.02000000,-0.23033888,0.03802553,0.03458322,5.10000000,-20.04000000,0.04000000
463,0,0.34400000,0.08000000,0.93600000,0.08000000,-0.13000000,0.02000000,-0.23022661,0.03784308,0.03461129,5.10000000,-20.04000000,0.04000000
464,0,0.34400000,0.08000000,0.93400000,-0.00000000,0.25000000,-0.22000000,-0.23022661,0.05143935,0.02264658,5.10000000,-20.04000000,0.04000000
465,0,0.34300000,0.08100000,0.93900000,-0.03000000,-0.15000000,-0.11000000,-0.23026976,0.05122361,0.02248837,5.10000000,-20.04000000,0.04000000
466,0,0.34000000,0.08100000,0.93300000,-0.03000000,0.09000000,0.09000000,-0.23031135,0.05134839,0.02261315,5.10000000,-20.04000000,0.04000000
467,0,0.34300000,0.08800000,0.93500000,-0.11000000,-0.14000000,0.01000000,-0.23047050,0.05114584,0.02262762,5.10000000,-20.04000000,0.04000000
468,0,0.33900000,0.08100000,0.93500000,-0.06000000,-0.18000000,-0.02000000,-0.23055504,0.05089223,0.02259944,5.10000000,-20.04000000,0.04000000
469,0,0.34100000,0.08600000,0.93400000,-0.00000000,-0.11000000,0.18000000,-0.23055504,0.05073450,0.02285756,5.10000000,-20.04000000,0.04000000
470,0,0.34400000,0.08400000,0.93400000,-0.11000000,0.04000000,0.17000000,-0.23642001,0.05286721,0.03192160,5.10000000,-20.04000000,0.04000000
471,0,0.34500000,0.08300000,0.94000000,0.10000000,-0.01000000,0.17000000,-0.23628085,0.05285330,0.03215815,5.10000000,-20.04000000,0.04000000
472,0,0.34000000,0.08200000,0.93400000,0.29000000,-0.14000000,0.15000000,-0.23589868,0.05266880,0.03235583,5.10000000,-20.04000000,0.04000000
473,0,0.34300000,0.08100000,0.93100000,0.14000000,0.15000000,-0.09000000,-0.23571592,0.05286462,0.03223834,5.10000000,-20.04000000,0.04000000
474,0,0.34100000,0.08500000,0.93700000,0.17000000,-0.14000000,-0.09000000,-0.23549415,0.05268199,0.03212094,5.10000000,-20.04000000,0.04000000
475,0,0.33900000,0.07800000,0.93600000,0.25000000,0.06000000,0.13000000,-0.23515885,0.05276246,0.03229529,5.10000000,-20.04000000,0.04000000
476,0,0.33800000,0.07900000,0.93500000,-0.19000000,-0.15000000,0.01000000,-0.24539358,0.04468242,0.03283396,5.10000000,-20.04000000,0.04000000
477,0,0.34300000,0.08200000,0.93500000,-0.08000000,-0.18000000,0.09000000,-0.24548437,0.04447812,0.03293611,5.10000000,-20.04000000,0.04000000
478,0,0.33900000,0.08200000,0.93400000,-0.12000000,0.08000000,0.18000000,-0.24561288,0.04456379,0.03312886,5.10000000,-20.04000000,0.05000000
479,0,0.34100000,0.08400000,0.93100000,-0.16000000,0.18000000,-0.02000000,-0.24578032,0.04475216,0.03310793,5.10000000,-20.05000000,0.05000000
480,0,0.34100000,0.08400000,0.93100000,-0.05000000,0.16000000,0.19000000,-0.24583140,0.04491564,0.03330206,5.10000000,-20.04000000,0.05000000
481,0,0.33800000,0.08100000,0.93700000,-0.08000000,0.20000000,0.25000000,-0.24591139,0.04511560,0.03355201,5.10000000,-20.04000000,0.05000000
482,0,0.33600000,0.08300000,0.93700000,-0.07000000,-0.19000000,-0.02000000,-0.24982645,0.03448899,0.03243342,5.10000000,-20.04000000,0.05000000
483,0,0.34000000,0.08300000,0.93700000,0.16000000,-0.21000000,-0.20000000,-0.24966168,0.03427272,0.03222745,5.10000000,-20.04000000,0.05000000
484,0,0.33600000,0.08100000,0.93200000,0.14000000,0.13000000,0.12000000,-0.24952361,0.03440093,0.03234579,5.10000000,-20.04000000,0.05000000
485,0,0.34000000,0.08500000,0.93400000,0.09000000,0.11000000,-0.00000000,-0.24943286,0.03451185,0.03234579,5.10000000,-20.04000000,0.05000000
486,0,0.34400000,0.08500000,0.93500000,0.12000000,-0.11000000,0.07000000,-0.24931314,0.03440211,0.03241563,5.10000000,-20.04000000,0.05000000
487,0,0.34200000,0.08800000,0.92800000,-0.08000000,0.17000000,0.10000000,-0.24939223,0.03457017,0.03251449,5.10000000,-20.04000000,0.05000000
488,0,0.34400000,0.08200000,0.93700000,0.12000000,-0.15000000,-0.09000000,-0.24272655,0.02623807,0.02751523,5.10000000,-20.04000000,0.05000000
489,0,0.34500000,0.08700000,0.93600000,-0.02000000,-0.22000000,0.09000000,-0.24274722,0.02601072,0.02760823,5.10000000,-20.04000000,0.05000000
490,0,0.34100000,0.08300000,0.93500000,0.01000000,-0.07000000,-0.09000000,-0.24273734,0.02594157,0.02751933,5.10000000,-20.04000000,0.05000000
491,0,0.34200000,0.08200000,0.94000000,-0.03000000,-0.16000000,-0.05000000,-0.24276742,0.02578114,0.02746919,5.10000000,-20.04000000,0.05000000
492,0,0.34600000,0.08100000,0.93600000,0.17000000,0.10000000,0.08000000,-0.24259847,0.02588052,0.02754870,5.10000000,-20.04000000,0.05000000
493,0,0.34100000,0.08600000,0.93600000,-0.10000000,-0.01000000,0.04000000,-0.24269828,0.02587054,0.02758862,5.10000000,-20.04000000,0.05000000
494,0,0.34600000,0.08000000,0.93700000,0.07000000,-0.49000000,-0.12000000,-0.23873994,-0.00183785,0.02080290,5.10000000,-20.04000000,0.05000000
495,0,0.34500000,0.08400000,0.93400000,-0.03000000,0.12000000,0.29000000,-0.23877094,-0.00171384,0.02110258,5.10000000,-20.04000000,0.05000000
496,0,0.34300000,0.08000000,0.93200000,-0.13000000,-0.11000000,0.31000000,-0.23890531,-0.00182754,0.02142301,5.10000000,-20.04000000,0.05000000
497,0,0.33800000,0.08400000,0.93500000,-0.12000000,0.21000000,0.02000000,-0.23902437,-0.00161919,0.02144286,5.10000000,-20.04000000,0.05000000
498,0,0.34000000,0.08100000,0.93600000,0.03000000,0.01000000,-0.02000000,-0.23899476,-0.00160932,0.02142312,5.10000000,-20.04000000,0.05000000
499,0,0.34300000,0.08700000,0.93900000,0.14000000,-0.18000000,-0.04000000,-0.23884932,-0.00179632,0.02138156,5.10000000,-20.04000000,0.05000000
500,0,0.34300000,0.08400000,0.93800000,-0.08000000,0.15000000,-0.02000000,-0.24328737,0.00652502,0.02027205,5.10000000,-20.04000000,0.05000000
501,0,0.34300000,0.08600000,0.93700000,-0.04000000,-0.13000000,0.07000000,-0.24332872,0.00639061,0.02034442,5.10000000,-20.04000000,0.05000000
502,0,0.34400000,0.08300000,0.94000000,-0.13000000,0.10000000,0.07000000,-0.24345885,0.00649071,0.02041449,5.10000000,-20.03000000,0.05000000
503,0,0.34100000,0.08200000,0.93400000,0.14000000,-0.10000000,0.11000000,-0.24331851,0.00639047,0.02052476,5.10000000,-20.03000000,0.04000000
504,0,0.34300000,0.08400000,0.93400000,0.29000000,0.07000000,-0.02000000,-0.24303265,0.00645947,0.02050504,5.10000000,-20.03000000,0.04000000
505,0,0.34500000,0.08000000,0.93800000,-0.02000000,-0.22000000,0.14000000,-0.24305252,0.00624088,0.02064415,5.10000000,-20.04000000,0.05000000
506,0,0.33500000,0.08700000,0.93600000,0.07000000,0.19000000,-0.04000000,-0.23914011,0.01686029,0.01840848,5.10000000,-20.04000000,0.05000000
507,0,0.34000000,0.08400000,0.93900000,0.07000000,-0.16000000,0.03000000,-0.23905268,0.01666045,0.01844595,5.10000000,-20.04000000,0.05000000
508,0,0.34300000,0.08900000,0.93500000,-0.19000000,-0.15000000,0.10000000,-0.23925093,0.01650394,0.01855029,5.10000000,-20.04000000,0.05000000
509,0,0.34400000,0.08400000,0.93500000,-0.12000000,0.11000000,-0.11000000,-0.23937326,0.01661607,0.01843816,5.10000000,-20.04000000,0.05000000
510,0,0.33700000,0.08400000,0.93700000,-0.22000000,0.24000000,0.01000000,-0.23959185,0.01685453,0.01844810,5.10000000,-20.04000000,0.05000000
511,0,0.34200000,0.08400000,0.93800000,-0.00000000,-0.07000000,-0.03000000,-0.23959185,0.01678410,0.01841791,5.10000000,-20.04000000,0.05000000
512,0,0.34500000,0.08400000,0.93300000,-0.05000000,0.20000000,-0.02000000,-0.24239079,0.02797987,0.01729834,5.10000000,-20.04000000,0.05000000
513,0,0.34200000,0.08200000,0.93500000,-0.02000000,-0.00000000,0.09000000,-0.24241676,0.02797987,0.01741520,5.10000000,-20.04000000,0.05000000
514,0,0.34100000,0.08000000,0.93500000,-0.04000000,0.14000000,0.10000000,-0.24246297,0.02814160,0.01753073,5.10000000,-20.03000000,0.05000000
515,0,0.34400000,0.08600000,0.93400000,0.20000000,0.17000000,0.22000000,-0.24225481,0.02831854,0.01775970,5.10000000,-20.04000000,0.05000000
516,0,0.34600000,0.08400000,0.93300000,0.09000000,0.22000000,-0.20000000,-0.24216230,0.02854468,0.01755412,5.10000000,-20.03000000,0.05000000
517,0,0.34000000,0.08700000,0.93500000,-0.03000000,0.08000000,-0.18000000,-0.24219295,0.02862642,0.01737021,5.10000000,-20.03000000,0.05000000
518,0,0.34400000,0.08100000,0.93400000,0.15000000,-0.16000000,-0.12000000,-0.23395251,0.01983662,0.01077786,5.10000000,-20.03000000,0.05000000
519,0,0.34200000,0.07900000,0.93800000,-0.24000000,0.00000000,-0.02000000,-0.23420665,0.01983662,0.01075668,5.10000000,-20.04000000,0.05000000
520,0,0.34200000,0.08200000,0.93600000,0.22000000,0.01000000,-0.03000000,-0.23398664,0.01984662,0.01072668,5.10000000,-20.03000000,0.05000000
521,0,0.34200000,0.07900000,0.93300000,-0.11000000,-0.12000000,-0.16000000,-0.23410081,0.01972207,0.01056061,5.10000000,-20.04000000,0.05000000
522,0,0.33900000,0.08000000,0.93900000,-0.06000000,-0.04000000,0.24000000,-0.23416368,0.01968016,0.01081206,5.10000000,-20.04000000,0.05000000
523,0,0.34300000,0.08100000,0.93800000,0.20000000,0.01000000,0.19000000,-0.23396110,0.01969029,0.01100451,5.10000000,-20.04000000,0.05000000
524,0,0.33700000,0.08500000,0.93500000,-0.08000000,-0.11000000,-0.18000000,-0.23839397,0.01359508,0.00103054,5.10000000,-20.03000000,0.05000000
525,0,0.34300000,0.08400000,0.93500000,-0.17000000,0.16000000,0.06000000,-0.23857683,0.01376718,0.00109507,5.10000000,-20.03000000,0.05000000
526,0,0.34200000,0.08700000,0.93800000,-0.14000000,-0.04000000,-0.08000000,-0.23871683,0.01372718,0.00101507,5.10000000,-20.03000000,0.05000000
527,0,0.34400000,0.08400000,0.93500000,0.08000000,-0.18000000,0.09000000,-0.23863797,0.01354975,0.00110379,5.10000000,-20.03000000,0.05000000
528,0,0.34500000,0.08200000,0.93400000,-0.02000000,0.00000000,-0.02000000,-0.23865764,0.01354975,0.00108412,5.10000000,-20.04000000,0.05000000
529,0,0.34000000,0.08700000,0.93500000,-0.13000000,0.15000000,-0.06000000,-0.23878860,0.01370086,0.00102368,5.10000000,-20.03000000,0.05000000
530,0,0.34600000,0.08200000,0.93700000,-0.08000000,0.15000000,-0.03000000,-0.24331189,0.02218202,-0.00067255,5.10000000,-20.03000000,0.05000000
531,0,0.33800000,0.08200000,0.93600000,-0.17000000,-0.29000000,0.14000000,-0.24349073,0.02187694,-0.00052527,5.10000000,-20.03000000,0.05000000
532,0,0.34700000,0.07400000,0.93300000,-0.09000000,-0.07000000,0.10000000,-0.24358101,0.02180672,-0.00042496,5.10000000,-20.03000000,0.05000000
533,0,0.34500000,0.08200000,0.93200000,0.00000000,-0.04000000,0.12000000,-0.24358101,0.02176671,-0.00030493,5.10000000,-20.03000000,0.05000000
534,0,0.33700000,0.08600000,0.93400000,-0.15000000,-0.02000000,0.15000000,-0.24373184,0.02174660,-0.00015410,5.10000000,-20.03000000,0.05000000
535,0,0.33800000,0.08300000,0.93800000,-0.01000000,-0.08000000,-0.15000000,-0.24374182,0.02166669,-0.00030393,5.09000000,-20.03000000,0.05000000
536,0,0.34200000,0.08200000,0.93300000,0.13000000,0.03000000,0.04000000,-0.23653136,0.02333064,0.00191468,5.09000000,-20.03000000,0.05000000
537,0,0.34800000,0.08300000,0.93400000,0.18000000,0.15000000,-0.26000000,-0.23634642,0.02348476,0.00164754,5.10000000,-20.03000000,0.05000000
538,0,0.34300000,0.08500000,0.93500000,0.18000000,0.09000000,-0.13000000,-0.23616813,0.02357391,0.00151878,5.10000000,-20.03000000,0.05000000
539,0,0.34000000,0.08200000,0.93900000,0.10000000,-0.16000000,0.05000000,-0.23606954,0.02341615,0.00156807,5.09000000,-20.03000000,0.05000000
540,0,0.34300000,0.08600000,0.93500000,-0.12000000,-0.04000000,0.25000000,-0.23619443,0.02337452,0.00182827,5.09000000,-20.03000000,0.05000000
541,0,0.34600000,0.08300000,0.93700000,0.06000000,-0.03000000,0.15000000,-0.23613434,0.02334448,0.00197849,5.09000000,-20.03000000,0.05000000
542,0,0.34200000,0.08700000,0.93700000,-0.22000000,-0.02000000,-0.10000000,-0.24836116,0.02223295,-0.00357915,5.09000000,-20.03000000,0.05000000
543,0,0.34300000,0.08200000,0.93400000,-0.07000000,0.03000000,-0.09000000,-0.24843587,0.02226496,-0.00367520,5.09000000,-20.03000000,0.05000000
544,0,0.34100000,0.07800000,0.93700000,0.08000000,-0.05000000,0.03000000,-0.24835516,0.02221452,-0.00364494,5.09000000,-20.03000000,0.05000000
545,0,0.34100000,0.08500000,0.93100000,0.07000000,0.03000000,0.10000000,-0.24828614,0.02224410,-0.00354634,5.09000000,-20.04000000,0.05000000
546,0,0.34500000,0.07700000,0.93600000,-0.23000000,0.12000000,-0.01000000,-0.24852273,0.02236754,-0.00355663,5.09000000,-20.03000000,0.05000000
547,0,0.34100000,0.08500000,0.93500000,0.06000000,-0.02000000,0.05000000,-0.24846298,0.02234762,-0.00350684,5.09000000,-20.03000000,0.05000000
548,0,0.34400000,0.08000000,0.93800000,-0.08000000,-0.05000000,-0.19000000,-0.25297544,0.01952734,-0.01422391,5.09000000,-20.03000000,0.05000000
549,0,0.34200000,0.08400000,0.93500000,-0.18000000,-0.13000000,-0.14000000,-0.25316218,0.01939247,-0.01436916,5.09000000,-20.03000000,0.05000000
550,0,0.34300000,0.08500000,0.93500000,0.12000000,0.00000000,-0.11000000,-0.25304206,0.01939247,-0.01447927,5.09000000,-20.04000000,0.05000000
551,0,0.33700000,0.08100000,0.93800000,-0.31000000,0.17000000,-0.19000000,-0.25337410,0.01957455,-0.01468277,5.09000000,-20.04000000,0.05000000
552,0,0.33900000,0.08000000,0.93700000,0.12000000,-0.03000000,0.08000000,-0.25324551,0.01954241,-0.01459705,5.09000000,-20.03000000,0.05000000
553,0,0.34600000,0.07900000,0.93300000,-0.05000000,0.02000000,0.22000000,-0.25329576,0.01956251,-0.01437594,5.09000000,-20.04000000,0.05000000
554,0,0.34200000,0.08600000,0.93900000,-0.17000000,0.04000000,0.09000000,-0.26271044,0.02177773,-0.00939170,5.09000000,-20.03000000,0.05000000
555,0,0.34600000,0.08700000,0.93200000,0.11000000,0.09000000,0.08000000,-0.26259674,0.02187075,-0.00930901,5.09000000,-20.04000000,0.05000000
556,0,0.33600000,0.08000000,0.93400000,-0.30000000,0.08000000,0.03000000,-0.26289281,0.02194971,-0.00927940,5.09000000,-20.04000000,0.05000000
557,0,0.34100000,0.08500000,0.93400000,-0.15000000,-0.00000000,0.03000000,-0.26304282,0.02194971,-0.00924940,5.09000000,-20.04000000,0.05000000
558,0,0.34100000,0.08500000,0.93400000,-0.07000000,0.02000000,-0.15000000,-0.26311265,0.02196966,-0.00939905,5.09000000,-20.04000000,0.05000000
559,0,0.33900000,0.08200000,0.93500000,0.07000000,0.04000000,-0.26000000,-0.26304397,0.02200891,-0.00965416,5.09000000,-20.04000000,0.05000000
560,0,0.34000000,0.08500000,0.93400000,0.03000000,0.12000000,0.22000000,-0.26137120,0.02869997,0.00261278,5.09000000,-20.03000000,0.05000000
561,0,0.34700000,0.09100000,0.93400000,0.21000000,0.20000000,0.14000000,-0.26113246,0.02892734,0.00277195,5.09000000,-20.03000000,0.05000000
562,0,0.34000000,0.08200000,0.93600000,0.12000000,0.28000000,-0.12000000,-0.26100742,0.02921910,0.00264691,5.09000000,-20.03000000,0.05000000
563,0,0.33900000,0.08200000,0.93300000,-0.20000000,0.18000000,0.18000000,-0.26120871,0.02940026,0.00282807,5.09000000,-20.03000000,0.05000000
564,0,0.34400000,0.08400000,0.93800000,0.06000000,0.04000000,-0.05000000,-0.26114944,0.02943978,0.00277868,5.09000000,-20.03000000,0.05000000
565,0,0.34400000,0.08700000,0.93600000,0.12000000,-0.07000000,0.08000000,-0.26103150,0.02937098,0.00285731,5.09000000,-20.03000000,0.05000000
566,0,0.34200000,0.08100000,0.93800000,-0.00000000,-0.33000000,-0.02000000,-0.26103150,0.01082360,0.00173322,5.09000000,-20.03000000,0.05000000
567,0,0.34400000,0.07900000,0.93000000,0.04000000,0.08000000,-0.10000000,-0.26099012,0.01090635,0.00162979,5.09000000,-20.03000000,0.05000000
568,0,0.34200000,0.08600000,0.93700000,0.09000000,0.12000000,-0.15000000,-0.26090016,0.01102629,0.00147985,5.09000000,-20.03000000,0.05000000
569,0,0.34600000,0.08000000,0.93500000,-0.11000000,-0.03000000,-0.25000000,-0.26100946,0.01099649,0.00123146,5.09000000,-20.04000000,0.05000000
570,0,0.34400000,0.08100000,0.93700000,-0.05000000,-0.31000000,0.07000000,-0.26105881,0.01069047,0.00130056,5.09000000,-20.04000000,0.05000000
571,0,0.33800000,0.08400000,0.93800000,-0.12000000,0.30000000,-0.05000000,-0.26117684,0.01098554,0.00125138,5.09000000,-20.03000000,0.05000000
572,0,0.34500000,0.08600000,0.93500000,0.13000000,-0.07000000,0.26000000,-0.25395244,0.00709548,0.01570020,5.09000000,-20.03000000,0.05000000
573,0,0.34400000,0.08400000,0.93600000,0.04000000,-0.03000000,0.27000000,-0.25391060,0.00706410,0.01598256,5.09000000,-20.03000000,0.05000000
574,0,0.34300000,0.08300000,0.93600000,0.08000000,-0.07000000,0.04000000,-0.25382808,0.00699190,0.01602382,5.09000000,-20.04000000,0.05000000
575,0,0.34200000,0.08900000,0.93500000,0.16000000,-0.01000000,0.07000000,-0.25366812,0.00698190,0.01609381,5.09000000,-20.04000000,0.05000000
576,0,0.34300000,0.08900000,0.93700000,0.12000000,0.13000000,0.20000000,-0.25354994,0.00710992,0.01629076,5.10000000,-20.04000000,0.05000000
577,0,0.34400000,0.09000000,0.93500000,-0.02000000,0.10000000,0.21000000,-0.25356964,0.00720840,0.01649757,5.10000000,-20.04000000,0.05000000
578,0,0.34500000,0.08200000,0.93500000,0.12000000,-0.03000000,0.04000000,-0.24654484,0.00545220,0.01883916,5.10000000,-20.04000000,0.05000000
579,0,0.34600000,0.08200000,0.93900000,0.03000000,0.17000000,0.12000000,-0.24651393,0.00562739,0.01896283,5.10000000,-20.04000000,0.05000000
580,0,0.34000000,0.08300000,0.93600000,0.17000000,-0.08000000,0.17000000,-0.24634611,0.00554842,0.01913065,5.10000000,-20.04000000,0.05000000
581,0,0.34400000,0.08700000,0.93200000,-0.06000000,-0.02000000,-0.20000000,-0.24640495,0.00552880,0.01893450,5.10000000,-20.04000000,0.05000000
582,0,0.34100000,0.08300000,0.93400000,-0.04000000,0.18000000,-0.05000000,-0.24644517,0.00570980,0.01888423,5.10000000,-20.04000000,0.05000000
583,0,0.34500000,0.08600000,0.93800000,-0.38000000,0.15000000,0.03000000,-0.24685771,0.00587264,0.01891680,5.10000000,-20.04000000,0.05000000
584,0,0.34900000,0.08300000,0.93800000,0.04000000,-0.25000000,-0.04000000,-0.24681606,0.00561232,0.01887514,5.10000000,-20.04000000,0.05000000
585,0,0.34600000,0.08000000,0.93600000,0.13000000,0.04000000,-0.25000000,-0.23948934,0.00786670,0.00478530,5.10000000,-20.04000000,0.05000000
586,0,0.34100000,0.08700000,0.93600000,-0.08000000,0.11000000,0.02000000,-0.23957176,0.00798003,0.00480590,5.10000000,-20.04000000,0.04000000
587,0,0.34000000,0.08500000,0.93300000,-0.07000000,0.02000000,-0.06000000,-0.23964138,0.00799992,0.00474623,5.10000000,-20.04000000,0.04000000
588,0,0.34700000,0.08200000,0.94100000,-0.10000000,-0.03000000,-0.08000000,-0.23974043,0.00797021,0.00466699,5.10000000,-20.04000000,0.04000000
589,0,0.33800000,0.08200000,0.93700000,-0.03000000,0.00000000,-0.04000000,-0.23976991,0.00797021,0.00462768,5.10000000,-20.04000000,0.04000000
590,0,0.34600000,0.08000000,0.93700000,-0.18000000,0.00000000,-0.06000000,-0.23994717,0.00797021,0.00456860,5.10000000,-20.04000000,0.04000000
591,0,0.34400000,0.08600000,0.93800000,0.24000000,0.13000000,0.03000000,-0.22660917,0.01519496,0.00623585,5.10000000,-20.04000000,0.04000000
592,0,0.34500000,0.08100000,0.93500000,-0.19000000,-0.16000000,0.02000000,-0.22681032,0.01502557,0.00625702,5.10000000,-20.04000000,0.04000000
593,0,0.34600000,0.08500000,0.93500000,-0.02000000,-0.16000000,0.29000000,-0.22683090,0.01486095,0.00655540,5.10000000,-20.04000000,0.04000000
594,0,0.33900000,0.08900000,0.93400000,-0.18000000,0.11000000,-0.08000000,-0.22701288,0.01497216,0.00647452,5.10000000,-20.04000000,0.04000000
595,0,0.33900000,0.08200000,0.93800000,-0.31000000,-0.20000000,-0.08000000,-0.22731948,0.01477434,0.00639539,5.10000000,-20.04000000,0.04000000
596,0,0.34100000,0.08600000,0.93700000,0.03000000,-0.09000000,-0.11000000,-0.22728985,0.01468543,0.00628673,5.10000000,-20.04000000,0.04000000
597,0,0.34300000,0.08200000,0.93500000,-0.14000000,0.02000000,0.18000000,-0.23505827,0.01579521,0.01627469,5.10000000,-20.04000000,0.04000000
598,0,0.34300000,0.08300000,0.93500000,0.10000000,-0.20000000,-0.28000000,-0.23495516,0.01558900,0.01598600,5.10000000,-20.04000000,0.04000000
599,0,0.34500000,0.08600000,0.93800000,0.05000000,-0.14000000,-0.03000000,-0.23490483,0.01544806,0.01595580,5.10000000,-20.04000000,0.04000000
600,0,0.34300000,0.08400000,0.93900000,-0.23000000,0.15000000,0.15000000,-0.23515074,0.01560844,0.01611618,5.10000000,-20.04000000,0.04000000
601,0,0.33600000,0.08300000,0.93300000,0.04000000,-0.19000000,0.16000000,-0.23511103,0.01541984,0.01627500,5.10000000,-20.04000000,0.04000000
602,0,0.34700000,0.08300000,0.93600000,-0.00000000,-0.27000000,0.01000000,-0.23511103,0.01513741,0.01628546,5.10000000,-20.05000000,0.04000000
603,0,0.34200000,0.08400000,0.93600000,-0.08000000,0.13000000,0.01000000,-0.23962442,0.02247166,0.01684963,5.10000000,-20.05000000,0.04000000
604,0,0.34200000,0.08300000,0.93500000,-0.01000000,0.09000000,0.01000000,-0.23963492,0.02256615,0.01686013,5.10000000,-20.05000000,0.04000000
605,0,0.34200000,0.08400000,0.94000000,0.00000000,0.11000000,0.28000000,-0.23963492,0.02267578,0.01713921,5.10000000,-20.05000000,0.04000000
606,0,0.34400000,0.09100000,0.93300000,-0.07000000,-0.11000000,-0.03000000,-0.23970383,0.02256748,0.01710967,5.10000000,-20.05000000,0.04000000
607,0,0.33700000,0.08400000,0.93300000,-0.00000000,-0.12000000,0.22000000,-0.23970383,0.02244948,0.01732601,5.10000000,-20.05000000,0.04000000
608,0,0.34300000,0.08000000,0.93600000,0.11000000,0.03000000,0.21000000,-0.23959414,0.02247940,0.01753541,5.10000000,-20.05000000,0.04000000
609,0,0.34500000,0.07900000,0.93500000,-0.12000000,0.01000000,0.37000000,-0.24625785,0.02303471,0.03808184,5.10000000,-20.05000000,0.05000000
610,0,0.34400000,0.08300000,0.93100000,0.09000000,-0.06000000,-0.02000000,-0.24616392,0.02297209,0.03806097,5.10000000,-20.05000000,0.05000000
611,0,0.33800000,0.08400000,0.93300000,0.11000000,0.09000000,0.04000000,-0.24605410,0.02306194,0.03810090,5.10000000,-20.05000000,0.05000000
612,0,0.34400000,0.08100000,0.93700000,-0.04000000,-0.09000000,0.15000000,-0.24609404,0.02297209,0.03825066,5.10000000,-20.05000000,0.05000000
613,0,0.34500000,0.08600000,0.93100000,0.18000000,-0.18000000,-0.07000000,-0.24591618,0.02279423,0.03818149,5.10000000,-20.05000000,0.05000000
614,0,0.34100000,0.08500000,0.93600000,-0.18000000,-0.10000000,-0.07000000,-0.24609768,0.02269339,0.03811090,5.10000000,-20.05000000,0.05000000
615,0,0.34300000,0.08500000,0.93900000,-0.09000000,0.04000000,-0.02000000,-0.25110379,0.02491833,0.03699843,5.10000000,-20.05000000,0.05000000
616,0,0.34200000,0.08100000,0.93800000,-0.05000000,0.20000000,-0.07000000,-0.25115624,0.02512811,0.03692501,5.10000000,-20.05000000,0.05000000
617,0,0.34400000,0.08100000,0.93800000,0.05000000,0.08000000,0.13000000,-0.25110641,0.02520782,0.03705455,5.10000000,-20.05000000,0.05000000
618,0,0.34100000,0.08300000,0.93600000,-0.10000000,0.32000000,0.18000000,-0.25120432,0.02552112,0.03723078,5.10000000,-20.05000000,0.05000000
619,0,0.34400000,0.08200000,0.93600000,0.06000000,0.04000000,0.00000000,-0.25114547,0.02556035,0.03723078,5.10000000,-20.05000000,0.05000000
620,0,0.34200000,0.08300000,0.93400000,0.24000000,-0.06000000,-0.16000000,-0.25090661,0.02550063,0.03707154,5.10000000,-20.05000000,0.05000000
621,0,0.34500000,0.08500000,0.93500000,-0.10000000,-0.15000000,0.28000000,-0.25655464,0.01702859,0.05288601,5.10000000,-20.05000000,0.05000000
622,0,0.34300000,0.08600000,0.93300000,-0.06000000,-0.09000000,0.13000000,-0.25661627,0.01693614,0.05301955,5.10000000,-20.05000000,0.05000000
623,0,0.34200000,0.09000000,0.93300000,-0.00000000,-0.11000000,-0.10000000,-0.25661627,0.01682813,0.05292136,5.10000000,-20.05000000,0.05000000
624,0,0.34400000,0.08100000,0.93700000,-0.04000000,0.20000000,-0.20000000,-0.25665555,0.01702451,0.05272498,5.10000000,-20.05000000,0.05000000
625,0,0.34000000,0.08500000,0.93400000,-0.13000000,-0.05000000,-0.08000000,-0.25678626,0.01697424,0.05264454,5.10000000,-20.05000000,0.05000000
626,0,0.34000000,0.08000000,0.93600000,0.18000000,-0.10000000,0.12000000,-0.25660557,0.01687385,0.05276500,5.10000000,-20.05000000,0.05000000
627,0,0.34100000,0.08600000,0.93700000,-0.04000000,0.05000000,0.03000000,-0.25883079,0.01965538,0.05443391,5.10000000,-20.05000000,0.05000000
628,0,0.34600000,0.08300000,0.93300000,-0.06000000,0.30000000,-0.30000000,-0.25889270,0.01996490,0.05412439,5.10000000,-20.05000000,0.05000000
629,0,0.34200000,0.08100000,0.93500000,-0.03000000,-0.15000000,-0.17000000,-0.25892223,0.01981726,0.05395706,5.10000000,-20.05000000,0.05000000
630,0,0.34200000,0.08700000,0.93800000,0.08000000,0.21000000,0.05000000,-0.25883824,0.02003773,0.05400955,5.10000000,-20.05000000,0.04000000
631,0,0.34100000,0.08300000,0.93400000,0.11000000,0.07000000,-0.11000000,-0.25872690,0.02010858,0.05389821,5.10000000,-20.05000000,0.04000000
632,0,0.34400000,0.08000000,0.94100000,-0.05000000,-0.00000000,-0.09000000,-0.25877659,0.02010858,0.05380877,5.10000000,-20.05000000,0.04000000
633,0,0.34600000,0.08400000,0.93600000,0.10000000,0.06000000,0.02000000,-0.25322143,0.02344168,0.05491980,5.10000000,-20.05000000,0.04000000
634,0,0.34200000,0.08400000,0.93500000,-0.17000000,-0.01000000,0.11000000,-0.25339666,0.02343137,0.05503319,5.10000000,-20.05000000,0.04000000
635,0,0.34500000,0.08600000,0.93400000,0.23000000,-0.10000000,-0.04000000,-0.25317088,0.02333321,0.05499392,5.10000000,-20.05000000,0.04000000
636,0,0.34900000,0.08900000,0.93500000,0.05000000,-0.08000000,0.12000000,-0.25312197,0.02325496,0.05511129,5.10000000,-20.05000000,0.04000000
637,0,0.34300000,0.08200000,0.93000000,0.10000000,-0.06000000,-0.00000000,-0.25302047,0.02319406,0.05511129,5.10000000,-20.05000000,0.04000000
638,0,0.34400000,0.08500000,0.93300000,0.04000000,-0.00000000,0.00000000,-0.25298031,0.02319406,0.05511129,5.10000000,-20.05000000,0.04000000
639,0,0.34400000,0.08700000,0.93300000,0.05000000,0.08000000,-0.11000000,-0.25015951,0.02770735,0.04890552,5.10000000,-20.05000000,0.04000000
640,0,0.34800000,0.08400000,0.93400000,0.19000000,0.16000000,0.12000000,-0.24995754,0.02787742,0.04903307,5.10000000,-20.05000000,0.04000000
641,0,0.35100000,0.08500000,0.93200000,0.09000000,0.06000000,-0.11000000,-0.24986719,0.02793765,0.04892265,5.10000000,-20.06000000,0.04000000
642,0,0.34700000,0.08300000,0.93300000,0.24000000,-0.12000000,-0.02000000,-0.24962530,0.02781671,0.04890249,5.10000000,-20.05000000,0.04000000
643,0,0.34600000,0.08400000,0.93500000,0.18000000,-0.15000000,-0.14000000,-0.24944645,0.02766767,0.04876339,5.11000000,-20.06000000,0.04000000
644,0,0.34300000,0.08300000,0.93800000,0.02000000,-0.13000000,-0.12000000,-0.24942651,0.02753803,0.04864373,5.11000000,-20.06000000,0.04000000
645,0,0.34300000,0.08000000,0.93500000,0.11000000,0.05000000,0.07000000,-0.24332163,0.03031298,0.05252866,5.10000000,-20.06000000,0.04000000
646,0,0.34600000,0.09100000,0.93400000,-0.00000000,-0.03000000,0.07000000,-0.24332163,0.03028179,0.05260144,5.11000000,-20.06000000,0.04000000
647,0,0.33900000,0.08400000,0.93200000,-0.13000000,0.09000000,0.17000000,-0.24345104,0.03037138,0.05277068,5.10000000,-20.06000000,0.04000000
648,0,0.34500000,0.08600000,0.94100000,-0.05000000,0.05000000,-0.11000000,-0.24350073,0.03042107,0.05266136,5.10000000,-20.06000000,0.04000000
649,0,0.34500000,0.08700000,0.93200000,0.18000000,-0.12000000,-0.17000000,-0.24332352,0.03030293,0.05249399,5.11000000,-20.06000000,0.04000000
650,0,0.34400000,0.08000000,0.93500000,-0.13000000,-0.32000000,-0.01000000,-0.24345107,0.02998895,0.05248418,5.10000000,-20.06000000,0.04000000
651,0,0.34700000,0.08000000,0.94000000,0.09000000,-0.13000000,-0.23000000,-0.23844389,0.02275636,0.03968805,5.11000000,-20.06000000,0.04000000
652,0,0.34000000,0.08600000,0.93800000,0.11000000,0.12000000,0.29000000,-0.23833040,0.02288016,0.03998726,5.11000000,-20.06000000,0.04000000
653,0,0.33900000,0.08500000,0.93200000,0.17000000,0.06000000,0.30000000,-0.23815837,0.02294088,0.04029084,5.11000000,-20.05000000,0.04000000
654,0,0.34500000,0.08400000,0.93300000,0.21000000,0.34000000,-0.02000000,-0.23794761,0.02328211,0.04027077,5.11000000,-20.05000000,0.04000000
655,0,0.34900000,0.08600000,0.93700000,-0.04000000,0.07000000,-0.03000000,-0.23798732,0.02335159,0.04024099,5.10000000,-20.05000000,0.04000000
656,0,0.33500000,0.08800000,0.93800000,-0.06000000,0.03000000,-0.11000000,-0.23804639,0.02338113,0.04013269,5.10000000,-20.05000000,0.04000000
657,0,0.34400000,0.08500000,0.93500000,0.18000000,0.00000000,-0.14000000,-0.22788252,0.02338113,0.03222746,5.11000000,-20.05000000,0.04000000
658,0,0.34100000,0.08000000,0.93700000,-0.08000000,0.03000000,-0.12000000,-0.22796481,0.02341199,0.03210402,5.10000000,-20.05000000,0.04000000
659,0,0.33800000,0.08500000,0.93600000,-0.16000000,0.03000000,0.11000000,-0.22813263,0.02344345,0.03221940,5.10000000,-20.05000000,0.04000000
660,0,0.34100000,0.08200000,0.93300000,0.10000000,-0.21000000,-0.10000000,-0.22803349,0.02323525,0.03212026,5.10000000,-20.05000000,0.04000000
661,0,0.33800000,0.08300000,0.93400000,0.12000000,-0.13000000,-0.17000000,-0.22791265,0.02310435,0.03194908,5.10000000,-20.05000000,0.04000000
662,0,0.34500000,0.07900000,0.93600000,0.06000000,-0.00000000,-0.01000000,-0.22785228,0.02310435,0.03193901,5.10000000,-20.05000000,0.04000000
663,0,0.34400000,0.08100000,0.93200000,0.06000000,-0.21000000,0.10000000,-0.22452350,0.01145363,0.03748698,5.10000000,-20.05000000,0.04000000
664,0,0.34000000,0.08600000,0.93500000,0.01000000,0.05000000,0.24000000,-0.22451319,0.01150520,0.03773454,5.10000000,-20.06000000,0.04000000
665,0,0.34300000,0.08100000,0.93400000,0.08000000,-0.14000000,-0.13000000,-0.22443292,0.01136473,0.03760410,5.10000000,-20.06000000,0.04000000
666,0,0.34400000,0.08600000,0.93700000,-0.08000000,0.03000000,0.06000000,-0.22451220,0.01139446,0.03766356,5.10000000,-20.05000000,0.04000000
667,0,0.34000000,0.08100000,0.93600000,0.06000000,-0.15000000,-0.22000000,-0.22445338,0.01124742,0.03744790,5.10000000,-20.05000000,0.04000000
668,0,0.34700000,0.08300000,0.93500000,0.03000000,0.00000000,0.04000000,-0.22442392,0.01124742,0.03748719,5.10000000,-20.05000000,0.04000000
669,0,0.34400000,0.08100000,0.93600000,-0.22000000,-0.19000000,0.15000000,-0.23669269,0.00065166,0.04585226,5.10000000,-20.05000000,0.04000000
670,0,0.34300000,0.08400000,0.93700000,0.08000000,-0.14000000,-0.07000000,-0.23661076,0.00050829,0.04578058,5.10000000,-20.05000000,0.04000000
671,0,0.34200000,0.08500000,0.93600000,-0.12000000,0.03000000,0.11000000,-0.23673246,0.00053871,0.04589213,5.10000000,-20.05000000,0.04000000
672,0,0.34900000,0.08500000,0.93200000,-0.01000000,0.14000000,0.04000000,-0.23674240,0.00067798,0.04593192,5.10000000,-20.05000000,0.04000000
673,0,0.34200000,0.08600000,0.93500000,-0.01000000,0.28000000,-0.01000000,-0.23675220,0.00095218,0.04592213,5.10000000,-20.05000000,0.04000000
674,0,0.33800000,0.08700000,0.93700000,0.05000000,-0.11000000,-0.08000000,-0.23670296,0.00084385,0.04584334,5.10000000,-20.05000000,0.04000000
675,0,0.34500000,0.08200000,0.93600000,-0.02000000,-0.22000000,-0.06000000,-0.23783038,-0.01155783,0.04246106,5.10000000,-20.05000000,0.03000000
676,0,0.34300000,0.08600000,0.93600000,-0.10000000,-0.21000000,0.19000000,-0.23793582,-0.01177926,0.04266140,5.10000000,-20.05000000,0.03000000
677,0,0.34000000,0.08800000,0.93700000,-0.26000000,-0.02000000,0.08000000,-0.23819546,-0.01179923,0.04274129,5.10000000,-20.05000000,0.03000000
678,0,0.34500000,0.08900000,0.93500000,0.12000000,-0.08000000,-0.03000000,-0.23807794,-0.01187757,0.04271191,5.10000000,-20.05000000,0.03000000
679,0,0.33800000,0.08400000,0.94100000,0.06000000,0.07000000,0.12000000,-0.23801940,-0.01180927,0.04282899,5.10000000,-20.05000000,0.03000000
680,0,0.34000000,0.08200000,0.93500000,-0.20000000,0.03000000,-0.06000000,-0.23821559,-0.01177984,0.04277014,5.10000000,-20.05000000,0.03000000
681,0,0.34200000,0.08500000,0.93400000,0.17000000,0.21000000,0.13000000,-0.22876902,-0.00011055,0.04999399,5.10000000,-20.05000000,0.03000000
682,0,0.34200000,0.08300000,0.93700000,-0.21000000,0.04000000,-0.21000000,-0.22899249,-0.00006798,0.04977051,5.10000000,-20.05000000,0.03000000
683,0,0.34300000,0.08500000,0.93700000,-0.31000000,0.16000000,0.16000000,-0.22930110,0.00009130,0.04992979,5.10000000,-20.05000000,0.03000000
684,0,0.34000000,0.08200000,0.93300000,-0.16000000,0.29000000,0.02000000,-0.22945855,0.00037668,0.04994947,5.10000000,-20.05000000,0.03000000
685,0,0.33900000,0.08500000,0.93900000,-0.18000000,-0.15000000,0.14000000,-0.22963980,0.00022564,0.05009045,5.10000000,-20.05000000,0.03000000
686,0,0.34700000,0.08300000,0.93500000,0.00000000,0.10000000,0.06000000,-0.22963980,0.00032519,0.05015018,5.10000000,-20.05000000,0.03000000
687,0,0.34000000,0.08200000,0.93800000,0.14000000,-0.05000000,0.16000000,-0.22184388,-0.00245907,0.05905980,5.10000000,-20.05000000,0.04000000
688,0,0.34100000,0.08300000,0.93600000,0.19000000,0.12000000,0.08000000,-0.22163516,-0.00232725,0.05914768,5.10000000,-20.05000000,0.04000000
689,0,0.34400000,0.08800000,0.94000000,0.27000000,-0.21000000,-0.16000000,-0.22135228,-0.00254727,0.05898004,5.10000000,-20.05000000,0.03000000
690,0,0.34100000,0.08100000,0.93900000,-0.00000000,-0.05000000,0.08000000,-0.22135228,-0.00259844,0.05906192,5.10000000,-20.05000000,0.03000000
691,0,0.34500000,0.08200000,0.93500000,-0.01000000,0.02000000,0.22000000,-0.22136228,-0.00257845,0.05928187,5.10000000,-20.05000000,0.03000000
692,0,0.33700000,0.08400000,0.93800000,-0.18000000,0.09000000,0.19000000,-0.22155134,-0.00248392,0.05948143,5.10000000,-20.05000000,0.04000000
693,0,0.33800000,0.08300000,0.93600000,0.13000000,0.06000000,0.06000000,-0.21424290,0.00088921,0.06285456,5.10000000,-20.05000000,0.04000000
694,0,0.34200000,0.08500000,0.93700000,-0.15000000,-0.08000000,-0.00000000,-0.21439899,0.00080596,0.06285456,5.10000000,-20.05000000,0.04000000
695,0,0.33800000,0.08600000,0.93500000,0.09000000,0.11000000,0.07000000,-0.21430959,0.00091523,0.06292409,5.10000000,-20.05000000,0.04000000
696,0,0.34300000,0.08600000,0.93400000,0.07000000,0.21000000,0.06000000,-0.21424042,0.00112273,0.06298338,5.10000000,-20.05000000,0.04000000
697,0,0.34000000,0.08900000,0.93300000,0.02000000,-0.14000000,0.08000000,-0.21422064,0.00098430,0.06306248,5.10000000,-20.05000000,0.04000000
698,0,0.33900000,0.08000000,0.93700000,-0.13000000,0.01000000,0.06000000,-0.21435068,0.00099430,0.06312250,5.10000000,-20.05000000,0.04000000
699,0,0.33800000,0.08200000,0.93200000,0.27000000,-0.07000000,0.21000000,-0.19936352,-0.00289126,0.07477918,5.10000000,-20.05000000,0.04000000
700,0,0.33800000,0.08300000,0.93500000,0.01000000,0.09000000,-0.05000000,-0.19935316,-0.00279802,0.07472738,5.10000000,-20.05000000,0.04000000
701,0,0.34100000,0.07700000,0.93200000,0.05000000,0.22000000,-0.23000000,-0.19930335,-0.00257885,0.07449825,5.10000000,-20.05000000,0.04000000
702,0,0.34300000,0.08500000,0.93400000,0.14000000,0.09000000,-0.36000000,-0.19916618,-0.00249067,0.07414553,5.10000000,-20.04000000,0.03000000
703,0,0.33900000,0.08700000,0.93400000,0.00000000,0.18000000,0.08000000,-0.19916618,-0.00231268,0.07422464,5.10000000,-20.04000000,0.03000000
704,0,0.34100000,0.08200000,0.93600000,-0.04000000,-0.04000000,-0.09000000,-0.19920825,-0.00235475,0.07412998,5.10000000,-20.04000000,0.03000000
705,0,0.34600000,0.08200000,0.93400000,-0.03000000,0.04000000,0.18000000,-0.20097118,-0.00000418,0.08470756,5.10000000,-20.05000000,0.03000000
706,0,0.34700000,0.08300000,0.93800000,-0.06000000,-0.16000000,0.26000000,-0.20103843,-0.00018352,0.08499900,5.10000000,-20.04000000,0.03000000
707,0,0.34900000,0.08700000,0.93400000,-0.03000000,-0.27000000,-0.17000000,-0.20106943,-0.00046248,0.08482336,5.10000000,-20.04000000,0.04000000
708,0,0.34000000,0.08500000,0.93900000,-0.18000000,-0.08000000,0.00000000,-0.20126106,-0.00054765,0.08482336,5.10000000,-20.04000000,0.04000000
709,0,0.34300000,0.08500000,0.93200000,0.14000000,-0.12000000,0.06000000,-0.20111755,-0.00067066,0.08488486,5.10000000,-20.04000000,0.04000000
710,0,0.34100000,0.08500000,0.93400000,-0.46000000,0.06000000,-0.02000000,-0.20158656,-0.00060948,0.08486447,5.10000000,-20.05000000,0.04000000
711,0,0.34200000,0.08300000,0.93400000,0.08000000,-0.22000000,-0.10000000,-0.20150334,-0.00083835,0.08476044,5.10000000,-20.05000000,0.04000000
712,0,0.34300000,0.09100000,0.93600000,0.10000000,-0.07000000,0.12000000,-0.19590163,-0.00475955,0.09148248,5.10000000,-20.05000000,0.04000000
713,0,0.34600000,0.07900000,0.93200000,-0.21000000,-0.06000000,-0.11000000,-0.19613001,-0.00482480,0.09136285,5.10000000,-20.05000000,0.04000000
714,0,0.34500000,0.08600000,0.93500000,0.12000000,-0.07000000,0.00000000,-0.19600867,-0.00489558,0.09136285,5.10000000,-20.05000000,0.04000000
715,0,0.34600000,0.08300000,0.93400000,0.02000000,0.01000000,-0.08000000,-0.19598877,-0.00488563,0.09128325,5.10000000,-20.05000000,0.04000000
716,0,0.34200000,0.08400000,0.93800000,0.06000000,-0.07000000,0.06000000,-0.19592811,-0.00495640,0.09134391,5.10000000,-20.05000000,0.04000000
717,0,0.34500000,0.08000000,0.93400000,0.01000000,0.09000000,0.04000000,-0.19591814,-0.00486668,0.09138379,5.10000000,-20.05000000,0.04000000
718,0,0.34300000,0.08300000,0.93700000,-0.21000000,0.10000000,0.06000000,-0.20755023,0.00067241,0.09470724,5.10000000,-20.05000000,0.04000000
719,0,0.34400000,0.08300000,0.93500000,0.07000000,0.07000000,-0.02000000,-0.20747838,0.00074427,0.09468671,5.10000000,-20.05000000,0.04000000
720,0,0.34100000,0.08700000,0.93600000,-0.01000000,0.14000000,0.09000000,-0.20748816,0.00088113,0.09477470,5.10000000,-20.05000000,0.04000000
721,0,0.34700000,0.07800000,0.93500000,0.00000000,0.21000000,-0.14000000,-0.20748816,0.00108673,0.09463763,5.10000000,-20.05000000,0.04000000
722,0,0.34400000,0.07900000,0.93600000,-0.06000000,0.03000000,0.06000000,-0.20754877,0.00111704,0.09469825,5.10000000,-20.05000000,0.04000000
723,0,0.34200000,0.08000000,0.93300000,0.10000000,0.21000000,0.12000000,-0.20744810,0.00132845,0.09481905,5.10000000,-20.05000000,0.04000000
724,0,0.34400000,0.08000000,0.93500000,0.00000000,-0.18000000,0.01000000,-0.20744810,-0.00870548,0.09537649,5.10000000,-20.04000000,0.04000000
725,0,0.34000000,0.08600000,0.93400000,0.01000000,-0.14000000,0.12000000,-0.20743778,-0.00884992,0.09550030,5.10000000,-20.04000000,0.04000000
726,0,0.34100000,0.08200000,0.93400000,-0.04000000,0.24000000,0.15000000,-0.20747699,-0.00861466,0.09564734,5.10000000,-20.05000000,0.04000000
727,0,0.34500000,0.08600000,0.93500000,0.26000000,-0.09000000,0.11000000,-0.20722027,-0.00870353,0.09575595,5.10000000,-20.05000000,0.04000000
728,0,0.34600000,0.09000000,0.93600000,0.27000000,-0.10000000,0.09000000,-0.20694415,-0.00880579,0.09584799,5.10000000,-20.04000000,0.04000000
729,0,0.34200000,0.08100000,0.93700000,0.12000000,-0.03000000,-0.08000000,-0.20682586,-0.00883537,0.09576914,5.10000000,-20.04000000,0.04000000
730,0,0.34100000,0.08600000,0.93900000,-0.14000000,0.23000000,-0.14000000,-0.21471764,0.00412971,0.08787735,5.10000000,-20.04000000,0.04000000
731,0,0.34000000,0.08000000,0.93400000,0.11000000,0.12000000,0.19000000,-0.21460400,0.00425369,0.08807365,5.10000000,-20.04000000,0.04000000
732,0,0.34100000,0.08300000,0.93400000,-0.05000000,-0.12000000,-0.21000000,-0.21465360,0.00413463,0.08786530,5.10000000,-20.04000000,0.04000000
733,0,0.34100000,0.08200000,0.93600000,-0.03000000,0.17000000,-0.15000000,-0.21468379,0.00430569,0.08771437,5.10000000,-20.05000000,0.04000000
734,0,0.34300000,0.08300000,0.93700000,-0.04000000,-0.09000000,-0.10000000,-0.21472333,0.00421671,0.08761551,5.10000000,-20.04000000,0.04000000
735,0,0.34300000,0.08100000,0.93500000,-0.09000000,0.13000000,0.10000000,-0.21481186,0.00434458,0.08771386,5.10000000,-20.04000000,0.04000000
736,0,0.34300000,0.08800000,0.93000000,-0.07000000,-0.02000000,-0.23000000,-0.21870528,0.00323217,0.07492120,5.10000000,-20.04000000,0.04000000
737,0,0.34000000,0.08100000,0.93300000,0.18000000,-0.06000000,0.03000000,-0.21851768,0.00316964,0.07495246,5.10000000,-20.05000000,0.04000000
738,0,0.34800000,0.08500000,0.93300000,0.06000000,0.10000000,-0.27000000,-0.21845746,0.00327000,0.07468149,5.10000000,-20.05000000,0.04000000
739,0,0.34600000,0.08300000,0.93600000,0.12000000,0.07000000,0.24000000,-0.21833643,0.00334060,0.07492356,5.10000000,-20.04000000,0.04000000
740,0,0.34300000,0.08700000,0.93500000,0.05000000,0.13000000,0.04000000,-0.21828659,0.00347017,0.07496342,5.10000000,-20.04000000,0.04000000
741,0,0.34300000,0.08300000,0.93700000,-0.12000000,-0.22000000,-0.10000000,-0.21840588,0.00325148,0.07486402,5.10000000,-20.04000000,0.04000000
742,0,0.34100000,0.08900000,0.93300000,-0.14000000,0.14000000,0.18000000,-0.22620243,0.01104803,0.08488816,5.10000000,-20.04000000,0.04000000
743,0,0.34400000,0.08300000,0.93400000,0.09000000,0.15000000,0.01000000,-0.22610932,0.01120322,0.08489851,5.10000000,-20.04000000,0.04000000
744,0,0.33900000,0.08300000,0.93600000,0.06000000,-0.32000000,-0.03000000,-0.22604970,0.01088527,0.08486870,5.10000000,-20.04000000,0.04000000
745,0,0.34300000,0.08200000,0.93800000,-0.17000000,-0.17000000,-0.34000000,-0.22622020,0.01071478,0.08452771,5.10000000,-20.04000000,0.04000000
746,0,0.34300000,0.08300000,0.93300000,0.17000000,-0.15000000,0.13000000,-0.22605076,0.01056528,0.08465728,5.10000000,-20.04000000,0.04000000
747,0,0.34500000,0.08200000,0.93600000,0.13000000,0.05000000,0.00000000,-0.22592113,0.01061514,0.08465728,5.10000000,-20.04000000,0.04000000
748,0,0.33500000,0.08200000,0.93500000,0.14000000,0.25000000,-0.21000000,-0.21803842,0.02469140,0.07283323,5.10000000,-20.04000000,0.04000000
749,0,0.34300000,0.08400000,0.93400000,-0.10000000,0.05000000,0.19000000,-0.21814193,0.02474315,0.07302989,5.10000000,-20.04000000,0.04000000
750,0,0.34300000,0.08200000,0.93600000,0.15000000,-0.14000000,0.02000000,-0.21799200,0.02460321,0.07304988,5.10000000,-20.04000000,0.04000000
751,0,0.34700000,0.08000000,0.93700000,-0.06000000,-0.09000000,-0.10000000,-0.21805211,0.02451304,0.07294969,5.10000000,-20.04000000,0.04000000
752,0,0.34100000,0.08100000,0.93600000,-0.00000000,-0.00000000,0.04000000,-0.21805211,0.02451304,0.07298905,5.10000000,-20.04000000,0.04000000
753,0,0.34200000,0.08500000,0.93600000,-0.01000000,-0.07000000,-0.14000000,-0.21806197,0.02444404,0.07285105,5.10000000,-20.04000000,0.04000000
754,0,0.34400000,0.08700000,0.93900000,0.10000000,0.07000000,-0.02000000,-0.21250454,0.02833424,0.07173956,5.10000000,-20.04000000,0.04000000
755,0,0.34700000,0.08300000,0.93700000,-0.11000000,0.07000000,-0.03000000,-0.21261832,0.02840664,0.07170853,5.10000000,-20.04000000,0.04000000
756,0,0.34100000,0.08600000,0.93800000,0.07000000,0.03000000,-0.39000000,-0.21254555,0.02843783,0.07130309,5.10000000,-20.04000000,0.04000000
757,0,0.34400000,0.09200000,0.93200000,-0.01000000,-0.05000000,-0.02000000,-0.21255556,0.02838777,0.07128306,5.10000000,-20.04000000,0.04000000
758,0,0.34300000,0.08500000,0.93300000,0.23000000,-0.07000000,-0.24000000,-0.21233054,0.02831929,0.07104826,5.10000000,-20.04000000,0.04000000
759,0,0.34400000,0.08400000,0.93100000,0.07000000,0.05000000,0.20000000,-0.21226219,0.02836811,0.07124355,5.10000000,-20.04000000,0.04000000
760,0,0.33900000,0.08200000,0.93700000,0.05000000,-0.20000000,0.09000000,-0.20947471,0.01721816,0.07626103,5.10000000,-20.04000000,0.04000000
761,0,0.34200000,0.08300000,0.93300000,0.09000000,-0.07000000,0.04000000,-0.20938209,0.01714612,0.07630219,5.10000000,-20.04000000,0.04000000
762,0,0.33700000,0.08300000,0.93500000,-0.01000000,0.14000000,0.01000000,-0.20939210,0.01728625,0.07631220,5.10000000,-20.04000000,0.04000000
763,0,0.34500000,0.08500000,0.93100000,-0.02000000,-0.01000000,-0.14000000,-0.20941586,0.01727437,0.07614583,5.10000000,-20.04000000,0.04000000
764,0,0.34100000,0.08100000,0.93600000,-0.03000000,-0.04000000,0.08000000,-0.20944939,0.01722967,0.07623523,5.10000000,-20.04000000,0.04000000
765,0,0.34100000,0.08500000,0.93900000,0.24000000,0.07000000,0.06000000,-0.20919840,0.01730287,0.07629798,5.10000000,-20.04000000,0.04000000
766,0,0.34700000,0.08200000,0.93500000,-0.10000000,-0.17000000,-0.03000000,-0.21479288,0.00779226,0.07461964,5.10000000,-20.04000000,0.04000000
767,0,0.34500000,0.08300000,0.93900000,0.17000000,-0.17000000,0.05000000,-0.21461339,0.00761277,0.07467243,5.10000000,-20.04000000,0.04000000
768,0,0.35000000,0.08500000,0.93600000,0.05000000,0.17000000,-0.16000000,-0.21456368,0.00778176,0.07451338,5.10000000,-20.04000000,0.04000000
769,0,0.34400000,0.08600000,0.93800000,-0.05000000,-0.03000000,-0.22000000,-0.21461300,0.00775217,0.07429636,5.10000000,-20.04000000,0.04000000
770,0,0.34000000,0.08800000,0.93900000,-0.02000000,-0.09000000,-0.09000000,-0.21463275,0.00766333,0.07420752,5.10000000,-20.04000000,0.04000000
771,0,0.34400000,0.08300000,0.93800000,0.21000000,-0.06000000,-0.05000000,-0.21442424,0.00760375,0.07415787,5.10000000,-20.04000000,0.04000000
772,0,0.34400000,0.08500000,0.93900000,0.23000000,-0.15000000,0.26000000,-0.20164956,-0.00072756,0.08859882,5.11000000,-20.04000000,0.04000000
773,0,0.34300000,0.08400000,0.93200000,-0.05000000,-0.12000000,0.13000000,-0.20170216,-0.00085380,0.08873558,5.10000000,-20.04000000,0.04000000
774,0,0.34200000,0.07800000,0.93700000,0.03000000,-0.06000000,0.19000000,-0.20167255,-0.00091302,0.08892309,5.10000000,-20.05000000,0.04000000
775,0,0.34000000,0.08400000,0.93500000,0.00000000,-0.09000000,-0.01000000,-0.20167255,-0.00100115,0.08891330,5.11000000,-20.05000000,0.04000000
776,0,0.34200000,0.08600000,0.93300000,0.04000000,0.02000000,0.07000000,-0.20163333,-0.00098154,0.08898195,5.11000000,-20.05000000,0.04000000
777,0,0.34400000,0.08600000,0.93600000,-0.16000000,-0.12000000,0.08000000,-0.20179707,-0.00110435,0.08906382,5.11000000,-20.05000000,0.04000000
778,0,0.34100000,0.08500000,0.93500000,0.20000000,-0.05000000,-0.06000000,-0.19047660,-0.00393446,0.08566768,5.10000000,-20.05000000,0.04000000
779,0,0.33900000,0.08200000,0.93400000,-0.06000000,-0.02000000,0.21000000,-0.19053901,-0.00395526,0.08588610,5.10000000,-20.05000000,0.04000000
780,0,0.34500000,0.08800000,0.93700000,0.10000000,-0.13000000,-0.04000000,-0.19044060,-0.00408319,0.08584674,5.11000000,-20.05000000,0.04000000
781,0,0.34400000,0.08200000,0.93500000,0.07000000,-0.08000000,0.17000000,-0.19037192,-0.00416169,0.08601354,5.11000000,-20.05000000,0.04000000
782,0,0.34200000,0.08000000,0.93500000,-0.11000000,-0.13000000,-0.12000000,-0.19048137,-0.00429104,0.08589414,5.11000000,-20.05000000,0.04000000
783,0,0.34700000,0.08200000,0.93800000,0.14000000,-0.12000000,0.12000000,-0.19034100,-0.00441136,0.08601445,5.11000000,-20.05000000,0.04000000
784,0,0.34200000,0.08300000,0.93500000,0.00000000,0.11000000,0.12000000,-0.19034100,0.00169581,0.09267682,5.11000000,-20.05000000,0.04000000
785,0,0.34200000,0.08500000,0.93900000,0.12000000,0.29000000,0.03000000,-0.19021187,0.00200787,0.09270910,5.10000000,-20.05000000,0.04000000
786,0,0.34700000,0.08300000,0.93300000,0.03000000,-0.24000000,-0.17000000,-0.19018200,0.00176889,0.09253982,5.11000000,-20.05000000,0.04000000
787,0,0.34800000,0.08700000,0.93500000,0.19000000,-0.05000000,-0.17000000,-0.18999602,0.00171995,0.09237343,5.11000000,-20.05000000,0.04000000
788,0,0.34700000,0.08700000,0.93300000,-0.28000000,0.09000000,-0.12000000,-0.19028003,0.00181124,0.09225171,5.11000000,-20.05000000,0.04000000
789,0,0.34500000,0.08600000,0.93600000,0.09000000,0.18000000,0.19000000,-0.19019093,0.00198945,0.09243981,5.11000000,-20.05000000,0.04000000
790,0,0.34400000,0.07700000,0.93700000,0.08000000,-0.07000000,0.03000000,-0.18574520,-0.00190057,0.09410696,5.10000000,-20.05000000,0.04000000
791,0,0.34500000,0.08500000,0.93500000,0.15000000,-0.00000000,-0.15000000,-0.18558615,-0.00190057,0.09394791,5.11000000,-20.05000000,0.04000000
792,0,0.34500000,0.08000000,0.93800000,0.28000000,0.21000000,-0.17000000,-0.18530888,-0.00169262,0.09377956,5.10000000,-20.05000000,0.04000000
793,0,0.34700000,0.08100000,0.93600000,0.13000000,-0.03000000,0.23000000,-0.18516297,-0.00172629,0.09403770,5.10000000,-20.05000000,0.04000000
794,0,0.33700000,0.08500000,0.93600000,0.17000000,0.02000000,-0.06000000,-0.18496792,-0.00170334,0.09396886,5.10000000,-20.05000000,0.04000000
795,0,0.34100000,0.08600000,0.93500000,0.12000000,0.05000000,0.24000000,-0.18484643,-0.00165272,0.09421184,5.10000000,-20.05000000,0.04000000
796,0,0.34400000,0.08100000,0.93200000,0.03000000,0.13000000,-0.05000000,-0.18316242,0.00564465,0.09140516,5.10000000,-20.05000000,0.05000000
797,0,0.34500000,0.08400000,0.93300000,-0.07000000,-0.06000000,-0.04000000,-0.18323469,0.00558271,0.09136386,5.10000000,-20.05000000,0.05000000
798,0,0.34500000,0.08200000,0.93500000,-0.40000000,0.14000000,-0.06000000,-0.18362908,0.00572074,0.09130470,5.10000000,-20.05000000,0.05000000
799,0,0.34500000,0.08100000,0.93600000,0.05000000,0.04000000,0.17000000,-0.18357878,0.00576098,0.09147572,5.10000000,-20.05000000,0.05000000
800,0,0.34400000,0.07800000,0.93600000,0.10000000,-0.08000000,0.11000000,-0.18348006,0.00568201,0.09158431,5.10000000,-20.05000000,0.05000000
801,0,0.34600000,0.08100000,0.93500000,0.25000000,-0.14000000,0.04000000,-0.18323494,0.00554474,0.09162353,5.10000000,-20.05000000,0.05000000
802,0,0.34400000,0.08400000,0.93600000,-0.10000000,-0.12000000,-0.06000000,-0.18905308,-0.00143703,0.08813265,5.10000000,-20.05000000,0.04000000
803,0,0.34000000,0.08200000,0.93400000,-0.03000000,0.02000000,0.00000000,-0.18908614,-0.00141499,0.08813265,5.10000000,-20.05000000,0.05000000
804,0,0.34100000,0.08200000,0.93200000,0.05000000,0.27000000,-0.10000000,-0.18902614,-0.00109104,0.08801266,5.10000000,-20.05000000,0.05000000
805,0,0.34100000,0.08500000,0.93500000,-0.04000000,0.26000000,0.02000000,-0.18907378,-0.00078138,0.08803648,5.10000000,-20.05000000,0.05000000
806,0,0.34500000,0.08400000,0.93600000,0.07000000,0.05000000,0.12000000,-0.18882254,-0.00060191,0.08846719,5.10000000,-20.05000000,0.05000000
807,0,0.34300000,0.08100000,0.93600000,-0.23000000,-0.07000000,0.14000000,-0.18938365,-0.00077269,0.08880874,5.10000000,-20.05000000,0.05000000
808,0,0.34100000,0.08200000,0.93400000,-0.07000000,0.03000000,-0.02000000,-0.19278592,0.00068543,0.08783666,5.10000000,-20.05000000,0.05000000
809,0,0.34000000,0.08000000,0.93700000,0.23000000,-0.27000000,-0.24000000,-0.19173232,-0.00055140,0.08673726,5.10000000,-20.05000000,0.05000000
810,0,0.34200000,0.08400000,0.93500000,0.16000000,0.20000000,0.04000000,-0.19008256,0.00151080,0.08714970,5.10000000,-20.05000000,0.05000000
811,0,0.34400000,0.08500000,0.93500000,-0.01000000,0.13000000,0.09000000,-0.19010397,0.00178911,0.08734238,5.10000000,-20.05000000,0.05000000
812,0,0.34500000,0.08400000,0.93900000,0.16000000,0.00000000,-0.41000000,-0.18891740,0.00178911,0.08430177,5.10000000,-20.05000000,0.05000000
813,0,0.34100000,0.08400000,0.93900000,-0.08000000,-0.26000000,0.10000000,-0.18933229,0.00044071,0.08482039,5.10000000,-20.05000000,0.05000000
814,0,0.34300000,0.08400000,0.93500000,0.11000000,0.03000000,-0.04000000,-0.18582182,0.00139811,0.08354385,5.10000000,-20.05000000,0.05000000
815,0,0.33800000,0.08300000,0.93700000,-0.10000000,0.04000000,-0.02000000,-0.18596042,0.00145355,0.08351613,5.10000000,-20.05000000,0.05000000
816,0,0.34100000,0.08700000,0.93700000,0.04000000,0.04000000,0.04000000,-0.18591340,0.00150057,0.08356315,5.10000000,-20.05000000,0.05000000
817,0,0.34200000,0.08900000,0.93100000,-0.32000000,-0.09000000,0.01000000,-0.18634678,0.00137868,0.08357670,5.10000000,-20.05000000,0.05000000
818,0,0.34500000,0.08700000,0.94200000,-0.12000000,-0.13000000,0.07000000,-0.18648533,0.00122859,0.08365751,5.10000000,-20.05000000,0.05000000
819,0,0.34100000,0.08200000,0.93500000,-0.01000000,-0.12000000,0.03000000,-0.18649636,0.00109620,0.08369061,5.10000000,-20.05000000,0.05000000
820,0,0.34400000,0.08400000,0.93500000,-0.31000000,0.14000000,0.23000000,-0.20334368,0.00870467,0.09619023,5.10000000,-20.05000000,0.05000000
821,0,0.34200000,0.08200000,0.93600000,0.03000000,-0.14000000,-0.12000000,-0.20331105,0.00855241,0.09605973,5.10000000,-20.05000000,0.05000000
822,0,0.34400000,0.08200000,0.93700000,-0.15000000,-0.17000000,0.04000000,-0.20346277,0.00838046,0.09610019,5.10000000,-20.05000000,0.05000000
823,0,0.34000000,0.08300000,0.93400000,0.10000000,-0.37000000,0.04000000,-0.20336179,0.00800683,0.09614058,5.10000000,-20.05000000,0.05000000
824,0,0.34300000,0.08400000,0.93600000,0.18000000,-0.10000000,0.08000000,-0.20318140,0.00790662,0.09622076,5.10000000,-20.05000000,0.05000000
825,0,0.34100000,0.08400000,0.93500000,0.02000000,0.20000000,0.11000000,-0.20316168,0.00810386,0.09632924,5.10000000,-20.05000000,0.05000000
826,0,0.33900000,0.08300000,0.93400000,0.12000000,0.17000000,-0.10000000,-0.19616011,0.01802274,0.09049460,5.10000000,-20.05000000,0.05000000
827,0,0.33900000,0.08100000,0.93700000,0.02000000,0.21000000,-0.12000000,-0.19613951,0.01823906,0.09037099,5.10000000,-20.04000000,0.05000000
828,0,0.34500000,0.08200000,0.93500000,-0.10000000,-0.22000000,0.05000000,-0.19623772,0.01802298,0.09042010,5.10000000,-20.04000000,0.05000000
829,0,0.34600000,0.08500000,0.93200000,-0.02000000,0.11000000,0.08000000,-0.19625764,0.01813251,0.09049976,5.10000000,-20.04000000,0.05000000
830,0,0.34100000,0.08600000,0.93600000,0.17000000,-0.02000000,-0.02000000,-0.19609011,0.01811280,0.09048005,5.10000000,-20.04000000,0.05000000
831,0,0.34700000,0.08300000,0.93700000,0.04000000,0.05000000,0.17000000,-0.19605086,0.01816186,0.09064685,5.10000000,-20.04000000,0.05000000
832,0,0.34600000,0.08200000,0.93300000,0.13000000,-0.01000000,0.24000000,-0.19592352,0.01815207,0.09088194,5.10000000,-20.05000000,0.05000000
833,0,0.34400000,0.08500000,0.93200000,-0.04000000,0.06000000,0.06000000,-0.19818624,0.02154615,0.09427602,5.09000000,-20.05000000,0.05000000
834,0,0.34800000,0.07700000,0.93300000,0.11000000,-0.08000000,0.01000000,-0.19807104,0.02146237,0.09428649,5.09000000,-20.05000000,0.05000000
835,0,0.34300000,0.08100000,0.93400000,0.08000000,-0.03000000,-0.04000000,-0.19799119,0.02143243,0.09424657,5.09000000,-20.05000000,0.05000000
836,0,0.34500000,0.08200000,0.94000000,0.05000000,0.09000000,-0.18000000,-0.19794214,0.02152073,0.09406995,5.09000000,-20.05000000,0.05000000
837,0,0.34200000,0.08400000,0.93600000,0.05000000,0.31000000,-0.11000000,-0.19789303,0.02182520,0.09396192,5.09000000,-20.04000000,0.05000000
838,0,0.34400000,0.08600000,0.93500000,0.04000000,0.22000000,0.05000000,-0.19785368,0.02204159,0.09401109,5.10000000,-20.04000000,0.05000000
839,0,0.34500000,0.08100000,0.93800000,-0.05000000,-0.05000000,-0.02000000,-0.20063189,0.01926339,0.09289981,5.10000000,-20.04000000,0.05000000
840,0,0.34100000,0.08200000,0.93400000,-0.16000000,0.06000000,0.06000000,-0.20079773,0.01932558,0.09296200,5.09000000,-20.04000000,0.05000000
