Measurement Count,IMU_MODE,Accel_X,Accel_Y,Accel_Z,Gyro_X,Gyro_Y,Gyro_Z,X_DEL_ANG,Y_DEL_ANG,Z_DEL_ANG,ROLL,PITCH,HEADING
1,0,-0.22500000,-0.44300000,0.87100000,0.20000000,-0.20000000,-0.27000000,0.00020134,-0.00020134,-0.00027181,-26.99000000,12.97000000,0.00000000
2,0,-0.23000000,-0.43900000,0.87100000,0.24000000,0.11000000,-0.05000000,0.00045005,-0.00008735,-0.00032362,-26.80000000,13.12000000,0.04000000
3,0,-0.22300000,-0.44200000,0.86600000,0.09000000,0.10000000,0.10000000,0.00054095,0.00001365,-0.00022262,-27.00000000,13.14000000,-0.00000000
4,0,-0.22300000,-0.44200000,0.86700000,-0.23000000,0.10000000,-0.22000000,0.00031023,0.00011397,-0.00044331,-26.96000000,13.13000000,0.00000000
5,0,-0.22300000,-0.44300000,0.86500000,-0.03000000,-0.29000000,-0.32000000,0.00028014,-0.00017687,-0.00076423,-27.00000000,13.11000000,-0.00000000
6,0,-0.22600000,-0.44100000,0.86700000,0.15000000,0.30000000,0.21000000,0.00043136,0.00012557,-0.00055252,-27.01000000,13.13000000,-0.01000000
7,0,-0.22600000,-0.44100000,0.87200000,0.11000000,-0.21000000,0.17000000,0.00054444,-0.00009030,-0.00037778,-27.01000000,13.13000000,-0.01000000
8,0,-0.23400000,-0.43800000,0.87000000,0.06000000,0.12000000,0.31000000,0.00060484,0.00003051,-0.00006570,-27.01000000,13.14000000,-0.01000000
9,0,-0.22700000,-0.44300000,0.86900000,0.08000000,-0.23000000,0.12000000,0.00068402,-0.00019714,0.00005307,-27.00000000,13.11000000,-0.01000000
10,0,-0.22700000,-0.43700000,0.86800000,0.15000000,-0.01000000,0.29000000,0.00083689,-0.00020733,0.00034861,-26.99000000,13.11000000,-0.00000000
11,0,-0.22900000,-0.44500000,0.86600000,0.01000000,-0.07000000,-0.05000000,0.00084683,-0.00027693,0.00029890,-27.01000000,13.14000000,-0.01000000
12,0,-0.22200000,-0.43700000,0.86600000,-0.01000000,0.01000000,-0.01000000,0.00083652,-0.00026662,0.00028859,-27.01000000,13.14000000,-0.01000000
13,0,-0.22300000,-0.44200000,0.87100000,0.01000000,-0.22000000,0.09000000,0.00084676,-0.00049198,0.00038078,-27.01000000,13.12000000,-0.01000000
14,0,-0.22200000,-0.44000000,0.87000000,0.01000000,0.05000000,0.19000000,0.00085674,-0.00044206,0.00057047,-27.02000000,13.11000000,-0.01000000
15,0,-0.22700000,-0.44100000,0.86900000,0.06000000,0.12000000,0.19000000,0.00091809,-0.00031937,0.00076473,-27.01000000,13.10000000,-0.01000000
16,0,-0.22400000,-0.44200000,0.86900000,-0.09000000,-0.00000000,-0.05000000,0.00082476,-0.00031937,0.00071288,-27.01000000,13.10000000,-0.01000000
17,0,-0.22100000,-0.44200000,0.86700000,0.21000000,0.10000000,-0.16000000,0.00105720,-0.00020868,0.00053579,-27.01000000,13.10000000,-0.01000000
18,0,-0.22800000,-0.44600000,0.86900000,0.05000000,-0.05000000,-0.10000000,0.00111360,-0.00026508,0.00042298,-27.01000000,13.09000000,-0.01000000
19,0,-0.22400000,-0.44500000,0.87000000,0.03000000,0.03000000,-0.11000000,0.00115540,-0.00022328,0.00026970,-27.02000000,13.08000000,-0.01000000
20,0,-0.22300000,-0.44000000,0.86700000,0.08000000,0.05000000,0.18000000,0.00125496,-0.00016106,0.00049370,-27.02000000,13.09000000,-0.01000000
21,0,-0.22600000,-0.44700000,0.86300000,0.11000000,-0.12000000,-0.22000000,0.00137626,-0.00029340,0.00025108,-27.02000000,13.09000000,-0.01000000
22,0,-0.22500000,-0.44000000,0.87100000,0.03000000,-0.18000000,0.04000000,0.00142364,-0.00057764,0.00031425,-27.02000000,13.08000000,-0.01000000
23,0,-0.22700000,-0.44200000,0.87100000,-0.06000000,-0.13000000,0.12000000,0.00133856,-0.00076198,0.00048441,-27.02000000,13.08000000,-0.01000000
24,0,-0.23000000,-0.44400000,0.86600000,-0.03000000,0.06000000,0.04000000,0.00126872,-0.00062230,0.00057753,-27.02000000,13.08000000,-0.01000000
25,0,-0.22600000,-0.44000000,0.86700000,-0.30000000,-0.08000000,-0.15000000,0.00089275,-0.00072256,0.00038954,-27.01000000,13.08000000,-0.01000000
26,0,-0.22700000,-0.44200000,0.87000000,0.19000000,0.13000000,-0.12000000,0.00114038,-0.00055313,0.00023315,-27.01000000,13.08000000,-0.01000000
27,0,-0.21600000,-0.44200000,0.87000000,0.01000000,0.06000000,-0.29000000,0.00115499,-0.00046546,-0.00019058,-27.01000000,13.07000000,-0.01000000
28,0,-0.22900000,-0.44600000,0.86300000,-0.05000000,0.12000000,0.02000000,0.00043346,0.00126621,0.00009803,-27.02000000,13.06000000,-0.01000000
29,0,-0.22600000,-0.43400000,0.87100000,0.30000000,0.23000000,-0.23000000,0.00082266,0.00156460,-0.00020036,-27.02000000,13.07000000,-0.01000000
30,0,-0.22500000,-0.44100000,0.86700000,0.12000000,-0.11000000,0.03000000,0.00102878,0.00137566,-0.00014883,-27.02000000,13.07000000,-0.01000000
31,0,-0.22700000,-0.44400000,0.86400000,0.07000000,0.17000000,0.07000000,0.00114229,0.00165133,-0.00003531,-27.02000000,13.07000000,-0.01000000
32,0,-0.22900000,-0.44400000,0.87100000,-0.10000000,-0.20000000,-0.24000000,0.00101635,0.00139944,-0.00033758,-27.02000000,13.06000000,-0.01000000
33,0,-0.22400000,-0.43800000,0.86700000,-0.08000000,-0.03000000,-0.01000000,0.00092875,0.00136659,-0.00034853,-27.02000000,13.06000000,-0.01000000
34,0,-0.22500000,-0.44200000,0.86800000,-0.18000000,0.20000000,0.11000000,-0.00869804,0.01206303,0.00553451,-27.01000000,13.07000000,-0.01000000
35,0,-0.22700000,-0.44100000,0.86600000,0.15000000,0.09000000,-0.04000000,-0.00853165,0.01216286,0.00549014,-27.02000000,13.06000000,-0.01000000
36,0,-0.22300000,-0.44100000,0.87100000,-0.02000000,-0.14000000,0.08000000,-0.00855224,0.01201875,0.00557249,-27.02000000,13.07000000,-0.01000000
37,0,-0.22700000,-0.43900000,0.86800000,0.07000000,-0.06000000,0.09000000,-0.00848140,0.01195803,0.00566357,-27.01000000,13.07000000,-0.01000000
38,0,-0.22500000,-0.44200000,0.87000000,-0.08000000,0.02000000,-0.05000000,-0.00856186,0.01197814,0.00561328,-27.01000000,13.07000000,-0.01000000
39,0,-0.22500000,-0.44200000,0.86800000,0.43000000,-0.28000000,-0.00000000,-0.00813072,0.01169740,0.00561328,-27.01000000,13.07000000,-0.01000000
40,0,-0.22300000,-0.44900000,0.86800000,-0.11000000,-0.06000000,-0.01000000,-0.01424159,0.00836420,0.00505775,-27.02000000,13.07000000,-0.01000000
41,0,-0.22500000,-0.44500000,0.87100000,-0.14000000,-0.12000000,-0.04000000,-0.01438960,0.00823733,0.00501546,-27.02000000,13.07000000,-0.01000000
42,0,-0.22400000,-0.44300000,0.86700000,-0.18000000,0.00000000,-0.24000000,-0.01457270,0.00823733,0.00477133,-27.02000000,13.07000000,-0.02000000
43,0,-0.22500000,-0.43800000,0.86700000,0.20000000,0.01000000,-0.04000000,-0.01437279,0.00824733,0.00473135,-27.02000000,13.07000000,-0.02000000
44,0,-0.22700000,-0.44500000,0.86800000,0.21000000,-0.02000000,0.26000000,-0.01416333,0.00822738,0.00499067,-27.02000000,13.08000000,-0.02000000
45,0,-0.22600000,-0.44300000,0.86500000,0.01000000,0.06000000,0.02000000,-0.01415328,0.00828766,0.00501076,-27.02000000,13.08000000,-0.02000000
46,0,-0.22400000,-0.44200000,0.86800000,0.04000000,0.10000000,-0.05000000,-0.01189866,0.01392421,0.00219248,-27.02000000,13.07000000,-0.02000000
47,0,-0.22600000,-0.44100000,0.86700000,-0.07000000,-0.19000000,-0.10000000,-0.01198191,0.01369824,0.00207355,-27.01000000,13.07000000,-0.02000000
48,0,-0.22800000,-0.44100000,0.86800000,-0.09000000,0.04000000,0.21000000,-0.01211462,0.01375722,0.00238319,-27.01000000,13.06000000,-0.02000000
49,0,-0.23100000,-0.44200000,0.86700000,0.08000000,0.27000000,0.26000000,-0.01202798,0.01404963,0.00266477,-27.00000000,13.07000000,-0.02000000
50,0,-0.22600000,-0.44600000,0.86700000,0.15000000,-0.23000000,0.31000000,-0.01187436,0.01381408,0.00298225,-27.01000000,13.07000000,-0.02000000
51,0,-0.22700000,-0.44300000,0.86800000,-0.09000000,0.19000000,0.07000000,-0.01197280,0.01402189,0.00305881,-27.00000000,13.07000000,-0.02000000
52,0,-0.22900000,-0.44500000,0.86800000,-0.04000000,0.08000000,0.19000000,-0.01427588,0.01862805,0.01399844,-27.00000000,13.07000000,-0.02000000
53,0,-0.22800000,-0.44000000,0.86800000,0.09000000,0.11000000,-0.05000000,-0.01418147,0.01874343,0.01394599,-27.00000000,13.07000000,-0.02000000
54,0,-0.22900000,-0.44200000,0.86300000,0.06000000,-0.15000000,0.13000000,-0.01412083,0.01859182,0.01407739,-27.00000000,13.07000000,-0.01000000
55,0,-0.22800000,-0.44300000,0.87000000,0.11000000,0.06000000,0.16000000,-0.01401075,0.01865186,0.01423751,-27.00000000,13.07000000,-0.01000000
56,0,-0.22500000,-0.44000000,0.86700000,-0.15000000,0.18000000,0.11000000,-0.01416000,0.01883097,0.01434696,-27.00000000,13.07000000,-0.01000000
57,0,-0.22800000,-0.43800000,0.86900000,0.19000000,-0.08000000,-0.00000000,-0.01396895,0.01875053,0.01434696,-27.00000000,13.07000000,-0.01000000
58,0,-0.22700000,-0.44500000,0.86500000,-0.06000000,-0.14000000,-0.26000000,-0.01402880,0.01861089,0.01408764,-27.00000000,13.07000000,-0.01000000
59,0,-0.22700000,-0.44200000,0.86900000,0.04000000,0.14000000,0.13000000,-0.01180799,0.02638371,0.02130526,-27.00000000,13.07000000,-0.01000000
60,0,-0.22500000,-0.44100000,0.86700000,-0.11000000,0.05000000,-0.12000000,-0.01192571,0.02643722,0.02117684,-27.00000000,13.07000000,-0.02000000
61,0,-0.22400000,-0.44500000,0.86400000,-0.02000000,-0.00000000,-0.02000000,-0.01194592,0.02643722,0.02115663,-27.00000000,13.06000000,-0.02000000
62,0,-0.22900000,-0.44500000,0.86700000,-0.16000000,0.07000000,0.24000000,-0.01210642,0.02650744,0.02139738,-27.00000000,13.06000000,-0.02000000
63,0,-0.22300000,-0.43700000,0.86800000,0.04000000,0.20000000,0.02000000,-0.01206569,0.02671107,0.02141774,-27.00000000,13.06000000,-0.02000000
64,0,-0.22500000,-0.43800000,0.86900000,0.00000000,0.27000000,0.20000000,-0.01206569,0.02698256,0.02161884,-27.00000000,13.06000000,-0.02000000
65,0,-0.22800000,-0.44400000,0.86800000,0.08000000,-0.05000000,0.09000000,-0.00755164,0.02416127,0.02669715,-27.00000000,13.06000000,-0.02000000
66,0,-0.22600000,-0.44100000,0.86900000,-0.09000000,0.08000000,-0.16000000,-0.00764516,0.02424440,0.02653089,-27.00000000,13.06000000,-0.02000000
67,0,-0.22500000,-0.43900000,0.86800000,0.02000000,0.12000000,0.09000000,-0.00762531,0.02436349,0.02662021,-27.00000000,13.06000000,-0.02000000
68,0,-0.22600000,-0.44400000,0.86800000,-0.13000000,-0.08000000,-0.02000000,-0.00775411,0.02428423,0.02660039,-27.00000000,13.06000000,-0.02000000
69,0,-0.22900000,-0.44200000,0.87000000,0.10000000,0.07000000,-0.04000000,-0.00765265,0.02435525,0.02655981,-27.00000000,13.06000000,-0.02000000
70,0,-0.22600000,-0.43900000,0.86700000,0.21000000,0.17000000,0.27000000,-0.00743939,0.02452789,0.02683400,-27.00000000,13.07000000,-0.02000000
71,0,-0.22400000,-0.43700000,0.86400000,0.07000000,-0.09000000,0.21000000,-0.00355291,0.01953099,0.03849344,-27.00000000,13.07000000,-0.02000000
72,0,-0.22400000,-0.44500000,0.87000000,-0.04000000,0.05000000,0.06000000,-0.00359597,0.01958481,0.03855802,-27.00000000,13.06000000,-0.02000000
73,0,-0.22600000,-0.43800000,0.86800000,0.06000000,0.05000000,0.02000000,-0.00353475,0.01963582,0.03857842,-27.00000000,13.06000000,-0.02000000
74,0,-0.23400000,-0.44200000,0.87000000,-0.06000000,-0.09000000,0.10000000,-0.00359436,0.01954640,0.03867778,-27.00000000,13.06000000,-0.02000000
75,0,-0.22800000,-0.44600000,0.86400000,0.04000000,-0.20000000,0.01000000,-0.00355475,0.01934835,0.03868768,-27.00000000,13.06000000,-0.02000000
76,0,-0.22900000,-0.44000000,0.86700000,-0.00000000,-0.22000000,-0.14000000,-0.00355475,0.01912687,0.03854675,-27.00000000,13.06000000,-0.02000000
77,0,-0.22100000,-0.44500000,0.87100000,0.10000000,-0.11000000,0.11000000,0.00201324,0.01300208,0.04467154,-27.00000000,13.06000000,-0.02000000
78,0,-0.22300000,-0.43800000,0.86700000,0.15000000,0.15000000,-0.03000000,0.00219360,0.01318245,0.04463546,-27.00000000,13.06000000,-0.02000000
79,0,-0.22700000,-0.44500000,0.87000000,0.04000000,0.30000000,-0.07000000,0.00223413,0.01348639,0.04456454,-27.00000000,13.06000000,-0.02000000
80,0,-0.22600000,-0.44500000,0.86600000,-0.03000000,-0.17000000,-0.11000000,0.00220439,0.01331785,0.04445548,-27.00000000,13.06000000,-0.02000000
81,0,-0.22400000,-0.44500000,0.86800000,0.17000000,0.01000000,-0.21000000,0.00237496,0.01332788,0.04424478,-27.00000000,13.06000000,-0.02000000
82,0,-0.22600000,-0.44100000,0.86400000,0.03000000,-0.03000000,0.12000000,0.00240527,0.01329757,0.04436604,-27.00000000,13.06000000,-0.02000000
83,0,-0.22400000,-0.44300000,0.86500000,-0.06000000,0.19000000,0.06000000,-0.00096078,0.02395675,0.04773209,-27.00000000,13.06000000,-0.02000000
84,0,-0.22300000,-0.44000000,0.86300000,-0.29000000,-0.08000000,0.11000000,-0.00126351,0.02387323,0.04784692,-27.00000000,13.06000000,-0.02000000
85,0,-0.22300000,-0.44200000,0.87200000,-0.06000000,0.06000000,-0.04000000,-0.00132303,0.02393275,0.04780725,-27.00000000,13.06000000,-0.02000000
86,0,-0.22700000,-0.44800000,0.86200000,0.12000000,-0.00000000,0.24000000,-0.00120431,0.02393275,0.04804468,-27.00000000,13.06000000,-0.02000000
87,0,-0.22800000,-0.43900000,0.86800000,-0.28000000,0.12000000,0.11000000,-0.00148726,0.02405401,0.04815584,-27.00000000,13.06000000,-0.02000000
88,0,-0.22600000,-0.44000000,0.87200000,0.00000000,-0.25000000,0.12000000,-0.00148726,0.02380037,0.04827759,-27.00000000,13.06000000,-0.02000000
89,0,-0.23400000,-0.44300000,0.86800000,-0.21000000,0.10000000,-0.05000000,-0.01317273,0.02936488,0.04549533,-27.00000000,13.06000000,-0.02000000
90,0,-0.22500000,-0.44300000,0.87000000,-0.10000000,0.08000000,0.16000000,-0.01327814,0.02944921,0.04566399,-27.00000000,13.06000000,-0.02000000
91,0,-0.22500000,-0.44200000,0.87100000,-0.17000000,0.06000000,0.27000000,-0.01344993,0.02950984,0.04593684,-27.00000000,13.06000000,-0.02000000
92,0,-0.23200000,-0.44400000,0.87000000,0.33000000,-0.31000000,-0.12000000,-0.01312055,0.02920042,0.04581706,-27.00000000,13.05000000,-0.02000000
93,0,-0.22600000,-0.44700000,0.86600000,0.13000000,0.12000000,-0.01000000,-0.01298844,0.02932237,0.04580690,-27.00000000,13.05000000,-0.02000000
94,0,-0.22500000,-0.44200000,0.86600000,0.05000000,0.14000000,0.04000000,-0.01293809,0.02946334,0.04584718,-27.00000000,13.06000000,-0.02000000
95,0,-0.22500000,-0.44400000,0.86900000,0.09000000,-0.25000000,0.00000000,-0.00794772,0.01560119,0.04584718,-27.00000000,13.06000000,-0.02000000
96,0,-0.22600000,-0.44600000,0.87100000,0.16000000,0.10000000,-0.02000000,-0.00778073,0.01570555,0.04582630,-27.00000000,13.05000000,-0.02000000
97,0,-0.23100000,-0.44500000,0.87400000,0.16000000,0.04000000,-0.14000000,-0.00762172,0.01574531,0.04568717,-27.00000000,13.05000000,-0.02000000
98,0,-0.22400000,-0.44400000,0.86800000,0.16000000,-0.11000000,-0.06000000,-0.00746320,0.01563632,0.04562772,-27.01000000,13.05000000,-0.02000000
99,0,-0.22500000,-0.44000000,0.86600000,-0.03000000,-0.22000000,0.02000000,-0.00749345,0.01541448,0.04564789,-27.01000000,13.05000000,-0.02000000
100,0,-0.22600000,-0.44300000,0.87200000,0.03000000,0.13000000,0.01000000,-0.00746264,0.01554799,0.04565816,-27.01000000,13.05000000,-0.02000000
101,0,-0.22700000,-0.44500000,0.86800000,0.14000000,-0.05000000,0.11000000,0.00044573,0.01272357,0.05187188,-27.01000000,13.05000000,-0.02000000
102,0,-0.22100000,-0.43900000,0.86700000,-0.06000000,0.03000000,-0.24000000,0.00038314,0.01275487,0.05162152,-27.01000000,13.05000000,-0.02000000
103,0,-0.22300000,-0.44400000,0.86400000,0.16000000,-0.12000000,0.02000000,0.00054276,0.01263515,0.05164147,-27.01000000,13.05000000,-0.02000000
104,0,-0.22800000,-0.44600000,0.86900000,0.03000000,0.05000000,0.16000000,0.00057350,0.01268638,0.05180540,-27.01000000,13.05000000,-0.02000000
105,0,-0.22500000,-0.44300000,0.86900000,0.14000000,-0.17000000,0.11000000,0.00071481,0.01251479,0.05191643,-27.01000000,13.05000000,-0.02000000
106,0,-0.21900000,-0.44300000,0.87100000,0.10000000,-0.09000000,-0.15000000,0.00081467,0.01242492,0.05176664,-27.01000000,13.05000000,-0.02000000
107,0,-0.22800000,-0.44400000,0.86900000,0.03000000,0.09000000,0.18000000,0.00247773,0.01741409,0.06174499,-27.01000000,13.05000000,-0.02000000
108,0,-0.23100000,-0.44200000,0.86900000,-0.03000000,0.12000000,-0.16000000,0.00244661,0.01753856,0.06157904,-27.01000000,13.05000000,-0.02000000
109,0,-0.22400000,-0.44400000,0.86400000,0.08000000,0.33000000,-0.02000000,0.00252596,0.01786589,0.06155920,-27.01000000,13.05000000,-0.02000000
110,0,-0.22600000,-0.44600000,0.87100000,0.19000000,0.12000000,0.04000000,0.00271751,0.01798687,0.06159952,-27.01000000,13.05000000,-0.02000000
111,0,-0.21900000,-0.43700000,0.86900000,0.18000000,0.02000000,0.31000000,0.00289747,0.01800687,0.06190946,-27.00000000,13.05000000,-0.02000000
112,0,-0.22700000,-0.44000000,0.86500000,0.25000000,-0.10000000,-0.01000000,0.00315076,0.01790555,0.06189933,-27.00000000,13.05000000,-0.02000000
113,0,-0.22400000,-0.44200000,0.86900000,0.26000000,-0.00000000,-0.12000000,0.01784400,0.01790555,0.05511783,-27.00000000,13.05000000,-0.02000000
114,0,-0.23000000,-0.44600000,0.86500000,0.25000000,-0.29000000,0.18000000,0.01810485,0.01760296,0.05530565,-27.00000000,13.05000000,-0.02000000
115,0,-0.22600000,-0.44100000,0.87100000,-0.01000000,0.03000000,0.06000000,0.01809471,0.01763340,0.05536652,-27.00000000,13.05000000,-0.02000000
116,0,-0.22400000,-0.44600000,0.87000000,-0.13000000,0.16000000,0.05000000,0.01796216,0.01779653,0.05541750,-27.00000000,13.05000000,-0.02000000
117,0,-0.22300000,-0.43900000,0.86600000,0.03000000,0.10000000,0.17000000,0.01799187,0.01789558,0.05558588,-27.00000000,13.05000000,-0.02000000
118,0,-0.22200000,-0.44200000,0.87000000,-0.03000000,-0.06000000,0.10000000,0.01796208,0.01783599,0.05568520,-27.00000000,13.05000000,-0.02000000
119,0,-0.22200000,-0.44700000,0.86900000,0.07000000,-0.00000000,0.13000000,0.02184284,0.01783599,0.06289231,-27.00000000,13.05000000,-0.02000000
120,0,-0.22600000,-0.44400000,0.87100000,0.14000000,0.04000000,0.10000000,0.02198851,0.01787761,0.06299637,-27.00000000,13.05000000,-0.02000000
121,0,-0.22900000,-0.44400000,0.86800000,0.18000000,0.18000000,0.17000000,0.02216972,0.01805882,0.06316751,-27.00000000,13.05000000,-0.02000000
122,0,-0.22900000,-0.44300000,0.86700000,-0.03000000,0.08000000,-0.14000000,0.02213956,0.01813926,0.06302673,-27.00000000,13.05000000,-0.02000000
123,0,-0.22600000,-0.44300000,0.86700000,-0.20000000,-0.25000000,0.12000000,0.02194170,0.01789194,0.06314545,-27.00000000,13.05000000,-0.02000000
124,0,-0.22300000,-0.44400000,0.87000000,-0.00000000,-0.09000000,-0.04000000,0.02194170,0.01780266,0.06310577,-27.00000000,13.05000000,-0.02000000
125,0,-0.22100000,-0.44000000,0.86600000,0.14000000,-0.11000000,0.08000000,0.02972363,0.01168829,0.06755259,-27.00000000,13.05000000,-0.02000000
126,0,-0.22700000,-0.44300000,0.87100000,0.16000000,-0.04000000,0.11000000,0.02989054,0.01164656,0.06766734,-27.00000000,13.05000000,-0.02000000
127,0,-0.22900000,-0.44100000,0.86500000,-0.01000000,-0.10000000,0.07000000,0.02988048,0.01154598,0.06773775,-27.00000000,13.05000000,-0.02000000
128,0,-0.22500000,-0.44800000,0.86900000,0.07000000,0.11000000,-0.03000000,0.02995057,0.01165612,0.06770771,-27.00000000,13.05000000,-0.02000000
129,0,-0.22100000,-0.44200000,0.86600000,0.14000000,0.06000000,0.08000000,0.03008960,0.01171571,0.06778716,-27.00000000,13.05000000,-0.02000000
130,0,-0.22200000,-0.44300000,0.86900000,-0.43000000,0.22000000,0.09000000,0.02966123,0.01193487,0.06787682,-27.00000000,13.05000000,-0.02000000
131,0,-0.22800000,-0.44100000,0.86200000,0.09000000,-0.06000000,0.18000000,0.03467384,0.00859314,0.07790203,-27.00000000,13.05000000,-0.02000000
132,0,-0.23000000,-0.44200000,0.87000000,-0.00000000,0.03000000,-0.01000000,0.03467384,0.00862581,0.07789114,-27.00000000,13.05000000,-0.02000000
133,0,-0.22400000,-0.44300000,0.86800000,0.21000000,0.13000000,-0.04000000,0.03494448,0.00879335,0.07783959,-27.00000000,13.05000000,-0.02000000
134,0,-0.22500000,-0.44300000,0.86600000,-0.04000000,-0.00000000,0.02000000,0.03489678,0.00879335,0.07786344,-27.00000000,13.05000000,-0.02000000
135,0,-0.22500000,-0.44300000,0.87200000,-0.25000000,-0.13000000,0.14000000,0.03459927,0.00863864,0.07803005,-27.00000000,13.05000000,-0.02000000
136,0,-0.22200000,-0.44100000,0.86900000,-0.07000000,-0.02000000,0.19000000,0.03451536,0.00861467,0.07825779,-27.00000000,13.05000000,-0.02000000
137,0,-0.23300000,-0.44200000,0.87000000,0.09000000,0.12000000,0.10000000,0.03949797,0.01525815,0.08379402,-27.00000000,13.05000000,-0.01000000
138,0,-0.22300000,-0.44100000,0.87100000,0.04000000,0.07000000,0.17000000,0.03954683,0.01534366,0.08400168,-27.01000000,13.05000000,-0.01000000
139,0,-0.23200000,-0.44300000,0.86500000,-0.07000000,-0.12000000,0.07000000,0.03946353,0.01520085,0.08408498,-27.01000000,13.06000000,-0.01000000
140,0,-0.22400000,-0.44000000,0.86800000,-0.18000000,0.15000000,0.02000000,0.03924962,0.01537911,0.08410875,-27.01000000,13.05000000,-0.01000000
141,0,-0.22500000,-0.44500000,0.86400000,0.01000000,-0.16000000,-0.02000000,0.03926155,0.01518824,0.08408489,-27.01000000,13.05000000,-0.01000000
142,0,-0.22600000,-0.44500000,0.87000000,-0.02000000,-0.22000000,-0.02000000,0.03923072,0.01484912,0.08405406,-27.01000000,13.05000000,-0.01000000
143,0,-0.22500000,-0.44100000,0.86800000,-0.18000000,0.06000000,-0.11000000,0.02946695,0.01810371,0.07808731,-27.01000000,13.05000000,-0.01000000
144,0,-0.22400000,-0.44200000,0.86600000,-0.04000000,-0.13000000,-0.06000000,0.02942276,0.01796010,0.07802103,-27.01000000,13.05000000,-0.01000000
145,0,-0.23000000,-0.44500000,0.86900000,0.05000000,0.05000000,0.22000000,0.02947668,0.01801402,0.07825829,-27.01000000,13.05000000,-0.01000000
146,0,-0.22500000,-0.44500000,0.86600000,0.05000000,-0.08000000,0.05000000,0.02953101,0.01792709,0.07831262,-27.01000000,13.05000000,-0.01000000
147,0,-0.22500000,-0.44600000,0.86800000,-0.06000000,0.16000000,-0.02000000,0.02946715,0.01809740,0.07829133,-27.01000000,13.05000000,-0.01000000
148,0,-0.22800000,-0.44800000,0.86600000,0.19000000,0.01000000,-0.13000000,0.02977602,0.01811366,0.07808000,-27.01000000,13.05000000,-0.01000000
149,0,-0.22500000,-0.43600000,0.86500000,-0.25000000,0.09000000,0.11000000,0.01585145,0.02312650,0.08420681,-27.01000000,13.06000000,-0.01000000
150,0,-0.22200000,-0.44000000,0.86900000,0.07000000,-0.13000000,0.03000000,0.01593481,0.02297170,0.08424253,-27.01000000,13.05000000,-0.01000000
151,0,-0.22200000,-0.43800000,0.86900000,0.01000000,-0.19000000,0.10000000,0.01594588,0.02276126,0.08435329,-27.01000000,13.05000000,-0.01000000
152,0,-0.22600000,-0.44400000,0.86600000,-0.15000000,0.02000000,0.26000000,0.01578551,0.02278265,0.08463127,-27.01000000,13.05000000,-0.01000000
153,0,-0.22700000,-0.44200000,0.86900000,-0.21000000,-0.23000000,-0.04000000,0.01553605,0.02250943,0.08458375,-27.01000000,13.05000000,-0.01000000
154,0,-0.22300000,-0.44400000,0.86500000,-0.03000000,-0.26000000,-0.05000000,0.01550330,0.02222562,0.08452918,-27.01000000,13.05000000,-0.01000000
155,0,-0.22500000,-0.45000000,0.86800000,0.14000000,0.23000000,0.04000000,0.02317719,0.03483272,0.08672171,-27.01000000,13.05000000,-0.01000000
156,0,-0.23200000,-0.44100000,0.86700000,0.04000000,0.12000000,-0.01000000,0.02322126,0.03496494,0.08671070,-27.01000000,13.05000000,-0.01000000
157,0,-0.22500000,-0.44100000,0.86800000,-0.06000000,0.18000000,-0.18000000,0.02315670,0.03515863,0.08651700,-27.01000000,13.05000000,-0.01000000
158,0,-0.22800000,-0.44100000,0.86600000,-0.10000000,0.32000000,0.05000000,0.02304732,0.03550863,0.08657169,-27.01000000,13.05000000,-0.01000000
159,0,-0.22400000,-0.44500000,0.86700000,0.26000000,-0.00000000,-0.16000000,0.02332729,0.03550863,0.08639940,-27.01000000,13.05000000,-0.01000000
160,0,-0.22800000,-0.45200000,0.86400000,0.18000000,-0.16000000,0.14000000,0.02352476,0.03533310,0.08655299,-27.01000000,13.05000000,-0.01000000
161,0,-0.22100000,-0.43900000,0.87000000,-0.04000000,-0.11000000,0.21000000,0.02132045,0.02927122,0.09812566,-27.01000000,13.05000000,-0.01000000
162,0,-0.22700000,-0.44000000,0.86500000,-0.01000000,0.07000000,-0.13000000,0.02130947,0.02934805,0.09798297,-27.01000000,13.05000000,-0.01000000
163,0,-0.22600000,-0.44400000,0.86900000,-0.00000000,-0.22000000,-0.11000000,0.02130947,0.02911525,0.09786657,-27.01000000,13.05000000,-0.01000000
164,0,-0.22900000,-0.44100000,0.86500000,0.14000000,0.20000000,0.10000000,0.02146126,0.02933209,0.09797499,-27.01000000,13.05000000,-0.01000000
165,0,-0.22800000,-0.44700000,0.86400000,0.26000000,0.08000000,0.03000000,0.02174724,0.02942008,0.09800799,-27.01000000,13.05000000,-0.01000000
166,0,-0.22000000,-0.44100000,0.86900000,-0.07000000,-0.08000000,-0.15000000,0.02167123,0.02933321,0.09784511,-27.01000000,13.05000000,-0.01000000
167,0,-0.22700000,-0.44200000,0.86900000,-0.22000000,-0.02000000,0.31000000,0.00949445,0.02822623,0.11500329,-27.01000000,13.05000000,-0.01000000
168,0,-0.22600000,-0.44000000,0.86300000,-0.20000000,0.04000000,-0.11000000,0.00927580,0.02826996,0.11488303,-27.01000000,13.05000000,-0.01000000
169,0,-0.22500000,-0.44500000,0.86700000,0.12000000,-0.10000000,0.07000000,0.00939778,0.02816831,0.11495419,-27.01000000,13.05000000,-0.01000000
170,0,-0.22000000,-0.44600000,0.86700000,-0.06000000,-0.09000000,-0.23000000,0.00933781,0.02807835,0.11472429,-27.01000000,13.05000000,-0.01000000
171,0,-0.22500000,-0.44300000,0.86700000,0.09000000,0.09000000,-0.35000000,0.00942845,0.02816900,0.11437178,-27.01000000,13.05000000,-0.01000000
172,0,-0.23100000,-0.44300000,0.86600000,0.07000000,0.24000000,-0.39000000,0.00949891,0.02841055,0.11397925,-27.01000000,13.05000000,-0.01000000
173,0,-0.22500000,-0.44100000,0.86500000,0.25000000,-0.32000000,0.27000000,0.02355633,0.01041705,0.12916127,-27.01000000,13.05000000,-0.01000000
174,0,-0.22400000,-0.44300000,0.86800000,-0.03000000,0.07000000,-0.10000000,0.02352438,0.01049161,0.12905476,-27.01000000,13.05000000,-0.01000000
175,0,-0.22500000,-0.43900000,0.86600000,-0.04000000,-0.23000000,-0.05000000,0.02348393,0.01025902,0.12900420,-27.01000000,13.05000000,-0.01000000
176,0,-0.22500000,-0.44000000,0.86900000,0.18000000,0.05000000,-0.14000000,0.02366638,0.01030971,0.12886229,-27.01000000,13.05000000,-0.01000000
177,0,-0.22800000,-0.44200000,0.86800000,0.09000000,0.12000000,0.01000000,0.02375668,0.01043011,0.12887233,-27.01000000,13.05000000,-0.01000000
178,0,-0.22600000,-0.44100000,0.86800000,0.03000000,0.02000000,0.04000000,0.02378674,0.01045015,0.12891240,-27.01000000,13.05000000,-0.01000000
179,0,-0.22800000,-0.44300000,0.86700000,-0.13000000,0.17000000,0.03000000,0.01618903,0.02038561,0.13066572,-27.01000000,13.05000000,-0.01000000
180,0,-0.22300000,-0.44700000,0.86800000,-0.05000000,0.10000000,0.11000000,0.01613542,0.02049284,0.13078367,-27.01000000,13.05000000,-0.01000000
181,0,-0.22300000,-0.44000000,0.86800000,0.35000000,-0.24000000,0.11000000,0.01648794,0.02025111,0.13089446,-27.01000000,13.05000000,-0.01000000
182,0,-0.22500000,-0.43800000,0.86700000,0.04000000,0.02000000,0.00000000,0.01652816,0.02027122,0.13089446,-27.01000000,13.05000000,-0.01000000
183,0,-0.22900000,-0.44400000,0.87000000,0.18000000,0.11000000,0.10000000,0.01672035,0.02038867,0.13100123,-27.01000000,13.05000000,-0.01000000
184,0,-0.22500000,-0.44100000,0.86800000,-0.04000000,0.11000000,-0.09000000,0.01667988,0.02049996,0.13091018,-27.01000000,13.05000000,-0.01000000
185,0,-0.22100000,-0.44100000,0.86700000,0.27000000,0.12000000,-0.08000000,0.01699727,0.02064102,0.13081614,-27.01000000,13.05000000,-0.01000000
186,0,-0.22200000,-0.44100000,0.86600000,-0.07000000,-0.00000000,-0.19000000,0.01305566,0.02064102,0.12011750,-27.01000000,13.05000000,-0.01000000
187,0,-0.22700000,-0.44100000,0.86700000,0.16000000,0.11000000,-0.13000000,0.01323024,0.02076105,0.11997566,-27.01000000,13.05000000,-0.01000000
188,0,-0.22700000,-0.44500000,0.86800000,0.29000000,0.08000000,0.13000000,0.01352723,0.02084297,0.12010879,-27.01000000,13.05000000,-0.01000000
189,0,-0.22400000,-0.44100000,0.86800000,-0.44000000,0.05000000,0.13000000,0.01307799,0.02089402,0.12024152,-27.01000000,13.05000000,-0.01000000
190,0,-0.21900000,-0.44600000,0.87100000,-0.09000000,-0.14000000,-0.15000000,0.01298541,0.02075002,0.12008723,-27.01000000,13.05000000,-0.01000000
191,0,-0.22100000,-0.44500000,0.86500000,-0.01000000,0.03000000,-0.06000000,0.01297534,0.02078023,0.12002680,-27.01000000,13.05000000,-0.02000000
192,0,-0.22500000,-0.44200000,0.86800000,-0.11000000,-0.01000000,-0.05000000,0.00689280,0.02022727,0.11726201,-27.01000000,13.05000000,-0.02000000
193,0,-0.23200000,-0.44300000,0.87400000,0.01000000,-0.10000000,-0.19000000,0.00690320,0.02012329,0.11706444,-27.01000000,13.05000000,-0.02000000
194,0,-0.23000000,-0.44100000,0.86800000,0.05000000,0.12000000,0.08000000,0.00695390,0.02024498,0.11714556,-27.01000000,13.05000000,-0.02000000
195,0,-0.23000000,-0.44400000,0.86600000,0.02000000,-0.28000000,-0.03000000,0.00697434,0.01995883,0.11711491,-27.01000000,13.05000000,-0.02000000
196,0,-0.22400000,-0.44200000,0.86800000,-0.19000000,-0.16000000,-0.32000000,0.00678139,0.01979635,0.11678994,-27.01000000,13.05000000,-0.02000000
197,0,-0.22700000,-0.44100000,0.86600000,-0.07000000,0.12000000,-0.04000000,0.00671092,0.01991715,0.11674967,-27.01000000,13.05000000,-0.02000000
198,0,-0.22600000,-0.44100000,0.86600000,0.26000000,-0.02000000,0.03000000,0.02112968,0.01880801,0.11841337,-27.01000000,13.05000000,-0.02000000
199,0,-0.22400000,-0.43900000,0.86800000,-0.21000000,-0.07000000,0.01000000,0.02090800,0.01873412,0.11842393,-27.01000000,13.05000000,-0.02000000
200,0,-0.23200000,-0.44600000,0.86900000,-0.08000000,0.17000000,-0.30000000,0.02082611,0.01890814,0.11811684,-27.01000000,13.05000000,-0.02000000
201,0,-0.22900000,-0.44000000,0.87000000,-0.18000000,-0.37000000,-0.04000000,0.02064276,0.01853125,0.11807609,-27.02000000,13.04000000,-0.02000000
202,0,-0.22700000,-0.44100000,0.86600000,-0.06000000,-0.16000000,0.08000000,0.02056731,0.01833005,0.11817669,-27.01000000,13.04000000,-0.02000000
203,0,-0.22800000,-0.44700000,0.86500000,-0.02000000,0.02000000,0.17000000,0.02054681,0.01835054,0.11835091,-27.02000000,13.04000000,-0.02000000
204,0,-0.22500000,-0.44200000,0.87100000,0.32000000,0.09000000,-0.17000000,0.03852796,0.02340774,0.10879843,-27.01000000,13.04000000,-0.02000000
205,0,-0.23000000,-0.43900000,0.86800000,0.15000000,0.06000000,0.01000000,0.03868729,0.02347147,0.10880905,-27.01000000,13.04000000,-0.02000000
206,0,-0.22600000,-0.44700000,0.86600000,-0.14000000,0.43000000,-0.14000000,0.03854605,0.02390528,0.10866782,-27.01000000,13.05000000,-0.02000000
207,0,-0.22200000,-0.44300000,0.86900000,-0.11000000,0.10000000,-0.17000000,0.03843398,0.02400717,0.10849461,-27.01000000,13.05000000,-0.02000000
208,0,-0.22700000,-0.43900000,0.86600000,0.14000000,0.13000000,0.00000000,0.03857372,0.02413692,0.10849461,-27.01000000,13.05000000,-0.02000000
209,0,-0.22800000,-0.44400000,0.87400000,0.11000000,0.25000000,0.29000000,0.03868385,0.02438723,0.10878496,-27.01000000,13.05000000,-0.02000000
210,0,-0.23300000,-0.44500000,0.86800000,0.21000000,-0.22000000,0.11000000,0.05034023,0.01217578,0.11489069,-27.01000000,13.05000000,-0.02000000
211,0,-0.23200000,-0.44300000,0.86800000,-0.10000000,-0.22000000,-0.10000000,0.05023486,0.01194398,0.11478532,-27.01000000,13.05000000,-0.02000000
212,0,-0.21900000,-0.44300000,0.87100000,0.10000000,-0.01000000,-0.02000000,0.05033570,0.01193389,0.11476515,-27.01000000,13.05000000,-0.02000000
213,0,-0.22900000,-0.44500000,0.87100000,-0.22000000,0.15000000,-0.08000000,0.05011617,0.01208357,0.11468532,-27.01000000,13.05000000,-0.02000000
214,0,-0.22600000,-0.44000000,0.86800000,0.10000000,-0.18000000,0.18000000,0.05021524,0.01190524,0.11486365,-27.01000000,13.04000000,-0.02000000
215,0,-0.22300000,-0.44300000,0.87000000,0.04000000,-0.07000000,-0.10000000,0.05025526,0.01183521,0.11476360,-27.01000000,13.04000000,-0.02000000
216,0,-0.22700000,-0.45000000,0.87300000,-0.05000000,0.20000000,-0.01000000,0.04748191,0.02292861,0.11420893,-27.01000000,13.04000000,-0.02000000
217,0,-0.22400000,-0.44000000,0.86800000,0.19000000,-0.10000000,0.02000000,0.04768048,0.02282410,0.11422983,-27.01000000,13.04000000,-0.02000000
218,0,-0.22800000,-0.44200000,0.86700000,-0.14000000,0.04000000,-0.08000000,0.04753840,0.02286469,0.11414865,-27.01000000,13.04000000,-0.02000000
219,0,-0.22500000,-0.44600000,0.86900000,0.26000000,0.01000000,0.16000000,0.04780108,0.02287479,0.11431029,-27.01000000,13.05000000,-0.02000000
220,0,-0.22500000,-0.43900000,0.86700000,0.20000000,-0.16000000,-0.11000000,0.04799970,0.02271589,0.11420105,-27.01000000,13.05000000,-0.02000000
221,0,-0.21900000,-0.44300000,0.86900000,0.10000000,-0.09000000,-0.09000000,0.04809973,0.02262587,0.11411103,-27.01000000,13.04000000,-0.02000000
222,0,-0.22700000,-0.44500000,0.87200000,-0.27000000,-0.04000000,-0.00000000,0.03284355,0.02036569,0.11411103,-27.01000000,13.04000000,-0.02000000
223,0,-0.22400000,-0.44000000,0.86400000,-0.04000000,0.06000000,0.12000000,0.03280131,0.02042906,0.11423775,-27.01000000,13.04000000,-0.02000000
224,0,-0.22900000,-0.44000000,0.87000000,0.07000000,0.06000000,-0.08000000,0.03287133,0.02048907,0.11415773,-27.01000000,13.05000000,-0.02000000
225,0,-0.22200000,-0.44400000,0.86900000,-0.20000000,0.26000000,-0.17000000,0.03267271,0.02074728,0.11398890,-27.01000000,13.04000000,-0.02000000
226,0,-0.23000000,-0.44100000,0.86600000,0.20000000,-0.25000000,0.11000000,0.03287176,0.02049847,0.11409838,-27.01000000,13.05000000,-0.02000000
227,0,-0.22500000,-0.44000000,0.86900000,0.02000000,0.08000000,0.04000000,0.03289189,0.02057901,0.11413865,-27.01000000,13.05000000,-0.02000000
228,0,-0.22900000,-0.44300000,0.87000000,-0.01000000,0.04000000,0.26000000,0.03233698,0.02279864,0.12856627,-27.01000000,13.05000000,-0.02000000
229,0,-0.22300000,-0.44400000,0.87100000,0.08000000,0.10000000,-0.06000000,0.03242120,0.02290391,0.12850310,-27.01000000,13.05000000,-0.02000000
230,0,-0.22600000,-0.44600000,0.86500000,0.04000000,0.19000000,-0.02000000,0.03246113,0.02309355,0.12848314,-27.01000000,13.05000000,-0.02000000
231,0,-0.22800000,-0.44300000,0.87100000,-0.26000000,0.00000000,0.14000000,0.03220447,0.02309355,0.12862134,-27.01000000,13.05000000,-0.03000000
232,0,-0.22500000,-0.43800000,0.86200000,-0.16000000,0.02000000,0.01000000,0.03204648,0.02311330,0.12863122,-27.01000000,13.05000000,-0.03000000
233,0,-0.22900000,-0.44600000,0.86700000,-0.06000000,-0.05000000,-0.14000000,0.03198581,0.02306274,0.12848964,-27.01000000,13.05000000,-0.03000000
234,0,-0.22500000,-0.44400000,0.86600000,0.03000000,0.12000000,-0.10000000,0.03365192,0.02972719,0.12293593,-27.01000000,13.05000000,-0.03000000
235,0,-0.22700000,-0.43600000,0.86900000,0.27000000,-0.06000000,-0.06000000,0.03393699,0.02966384,0.12287258,-27.01000000,13.05000000,-0.03000000
236,0,-0.22200000,-0.44100000,0.87000000,-0.04000000,-0.00000000,-0.05000000,0.03389700,0.02966384,0.12282259,-27.01000000,13.05000000,-0.03000000
237,0,-0.22500000,-0.44200000,0.86800000,0.16000000,-0.03000000,-0.03000000,0.03405571,0.02963408,0.12279284,-27.01000000,13.05000000,-0.03000000
238,0,-0.22500000,-0.44000000,0.86700000,0.09000000,0.26000000,0.02000000,0.03414451,0.02989062,0.12281257,-27.01000000,13.05000000,-0.03000000
239,0,-0.22700000,-0.44600000,0.86600000,0.05000000,-0.11000000,0.03000000,0.03419490,0.02977975,0.12284281,-27.01000000,13.05000000,-0.03000000
240,0,-0.22000000,-0.44000000,0.86500000,-0.07000000,-0.00000000,0.13000000,0.03023898,0.02977975,0.13018952,-27.01000000,13.05000000,-0.03000000
241,0,-0.22500000,-0.44500000,0.86300000,-0.36000000,0.11000000,0.14000000,0.02986490,0.02989406,0.13033500,-27.01000000,13.05000000,-0.03000000
242,0,-0.22800000,-0.44500000,0.86500000,-0.14000000,-0.01000000,0.17000000,0.02972626,0.02988415,0.13050334,-27.01000000,13.05000000,-0.03000000
243,0,-0.22100000,-0.44500000,0.87100000,0.03000000,0.20000000,-0.05000000,0.02975769,0.03009370,0.13045096,-27.01000000,13.05000000,-0.03000000
244,0,-0.22600000,-0.44500000,0.86800000,0.09000000,-0.27000000,-0.11000000,0.02984995,0.02981693,0.13033820,-27.01000000,13.05000000,-0.03000000
245,0,-0.22600000,-0.43700000,0.86600000,0.17000000,-0.12000000,-0.33000000,0.03002097,0.02969621,0.13000622,-27.01000000,13.05000000,-0.03000000
246,0,-0.23100000,-0.44500000,0.86800000,-0.21000000,0.03000000,0.03000000,0.01835632,0.03136259,0.13167260,-27.01000000,13.05000000,-0.03000000
247,0,-0.22700000,-0.44200000,0.87100000,-0.06000000,0.05000000,-0.01000000,0.01829060,0.03141736,0.13166165,-27.01000000,13.05000000,-0.03000000
248,0,-0.22300000,-0.44300000,0.86700000,0.06000000,0.01000000,-0.16000000,0.01835182,0.03142756,0.13149840,-27.01000000,13.05000000,-0.03000000
249,0,-0.22500000,-0.44300000,0.86200000,0.13000000,0.08000000,-0.08000000,0.01848241,0.03150793,0.13141803,-27.01000000,13.05000000,-0.03000000
250,0,-0.22600000,-0.44000000,0.86800000,0.01000000,-0.04000000,-0.01000000,0.01849262,0.03146710,0.13140783,-27.01000000,13.05000000,-0.03000000
251,0,-0.22400000,-0.44700000,0.86700000,-0.04000000,-0.19000000,-0.08000000,0.01845197,0.03127402,0.13132653,-27.01000000,13.05000000,-0.03000000
252,0,-0.22500000,-0.44500000,0.87000000,0.21000000,0.14000000,0.05000000,0.03006779,0.03901790,0.13409220,-27.01000000,13.05000000,-0.03000000
253,0,-0.22700000,-0.44600000,0.86600000,-0.33000000,0.32000000,0.01000000,0.02972079,0.03935439,0.13410272,-27.01000000,13.05000000,-0.03000000
254,0,-0.23000000,-0.44300000,0.86900000,-0.10000000,0.07000000,0.14000000,0.02962200,0.03942354,0.13424102,-27.01000000,13.05000000,-0.03000000
255,0,-0.22700000,-0.44700000,0.86800000,0.24000000,0.13000000,0.09000000,0.02986126,0.03955314,0.13433074,-27.01000000,13.05000000,-0.03000000
256,0,-0.22500000,-0.44700000,0.86300000,-0.13000000,-0.12000000,0.01000000,0.02973021,0.03943217,0.13434082,-27.01000000,13.05000000,-0.03000000
257,0,-0.22300000,-0.44500000,0.86400000,-0.20000000,0.10000000,-0.09000000,0.02952963,0.03953245,0.13425056,-27.01000000,13.05000000,-0.03000000
258,0,-0.22700000,-0.44400000,0.86200000,0.07000000,-0.03000000,0.15000000,0.03348488,0.03783735,0.14272611,-27.01000000,13.05000000,-0.03000000
259,0,-0.22500000,-0.44400000,0.86400000,-0.11000000,0.11000000,-0.10000000,0.03337029,0.03795194,0.14262193,-27.01000000,13.05000000,-0.04000000
260,0,-0.22600000,-0.44800000,0.86800000,-0.01000000,0.13000000,0.15000000,0.03336035,0.03808114,0.14277101,-27.02000000,13.05000000,-0.04000000
261,0,-0.22300000,-0.44400000,0.86300000,-0.01000000,0.30000000,0.13000000,0.03335026,0.03838394,0.14290222,-27.02000000,13.05000000,-0.04000000
262,0,-0.22700000,-0.44400000,0.87100000,0.09000000,-0.20000000,0.15000000,0.03344009,0.03818431,0.14305194,-27.02000000,13.05000000,-0.04000000
263,0,-0.22500000,-0.44300000,0.86900000,-0.04000000,-0.06000000,0.13000000,0.03339998,0.03812415,0.14318228,-27.02000000,13.05000000,-0.04000000
264,0,-0.22100000,-0.44200000,0.86700000,0.01000000,-0.01000000,0.26000000,0.03395541,0.03756873,0.15762329,-27.02000000,13.05000000,-0.03000000
265,0,-0.22600000,-0.44700000,0.86400000,-0.16000000,-0.01000000,-0.06000000,0.03378884,0.03755832,0.15756083,-27.02000000,13.05000000,-0.03000000
266,0,-0.22400000,-0.44700000,0.86800000,0.11000000,0.17000000,-0.07000000,0.03389803,0.03772707,0.15749134,-27.02000000,13.05000000,-0.03000000
267,0,-0.22200000,-0.44200000,0.86800000,-0.07000000,0.05000000,-0.32000000,0.03382601,0.03777851,0.15716210,-27.02000000,13.06000000,-0.04000000
268,0,-0.22200000,-0.44500000,0.86800000,0.28000000,-0.06000000,0.02000000,0.03410615,0.03771848,0.15718211,-27.02000000,13.05000000,-0.04000000
269,0,-0.22600000,-0.44000000,0.86700000,0.20000000,-0.26000000,0.16000000,0.03430463,0.03746046,0.15734090,-27.02000000,13.05000000,-0.04000000
270,0,-0.22400000,-0.44400000,0.86700000,0.12000000,0.06000000,-0.23000000,0.04097632,0.04079630,0.14455349,-27.02000000,13.05000000,-0.04000000
271,0,-0.23200000,-0.44400000,0.86800000,0.10000000,0.22000000,-0.07000000,0.04108195,0.04102869,0.14447955,-27.02000000,13.05000000,-0.04000000
272,0,-0.22600000,-0.44400000,0.86300000,-0.04000000,-0.35000000,-0.18000000,0.04104172,0.04067667,0.14429852,-27.02000000,13.05000000,-0.04000000
273,0,-0.22700000,-0.44400000,0.86800000,0.21000000,-0.23000000,0.38000000,0.04125378,0.04044442,0.14468224,-27.02000000,13.05000000,-0.04000000
274,0,-0.23100000,-0.44200000,0.87000000,-0.01000000,-0.20000000,-0.12000000,0.04124373,0.04024350,0.14456170,-27.02000000,13.05000000,-0.04000000
275,0,-0.22800000,-0.44500000,0.86600000,-0.04000000,0.11000000,0.16000000,0.04120341,0.04035440,0.14472300,-27.02000000,13.05000000,-0.04000000
276,0,-0.22700000,-0.44400000,0.86700000,0.08000000,0.18000000,0.04000000,0.04571613,0.05050802,0.14697936,-27.02000000,13.05000000,-0.04000000
277,0,-0.22600000,-0.44400000,0.86800000,0.27000000,0.05000000,-0.13000000,0.04599972,0.05056053,0.14684281,-27.02000000,13.05000000,-0.04000000
278,0,-0.22300000,-0.44700000,0.86700000,0.07000000,0.08000000,-0.04000000,0.04607097,0.05064197,0.14680210,-27.02000000,13.05000000,-0.04000000
279,0,-0.21800000,-0.44400000,0.86700000,0.05000000,0.10000000,0.10000000,0.04612121,0.05074245,0.14690258,-27.02000000,13.05000000,-0.04000000
280,0,-0.22600000,-0.43900000,0.86900000,-0.23000000,0.23000000,-0.07000000,0.04589181,0.05097185,0.14683276,-27.02000000,13.05000000,-0.04000000
281,0,-0.22300000,-0.44200000,0.86900000,-0.04000000,0.17000000,0.03000000,0.04585168,0.05114238,0.14686285,-27.02000000,13.05000000,-0.04000000
282,0,-0.22400000,-0.44300000,0.86700000,-0.02000000,0.11000000,0.14000000,0.04474172,0.05724716,0.15463257,-27.02000000,13.05000000,-0.04000000
283,0,-0.22400000,-0.44600000,0.86900000,0.12000000,-0.11000000,0.07000000,0.04490584,0.05709672,0.15472831,-27.02000000,13.05000000,-0.04000000
284,0,-0.22200000,-0.44300000,0.86900000,0.07000000,0.08000000,-0.09000000,0.04499824,0.05720232,0.15460951,-27.02000000,13.05000000,-0.04000000
285,0,-0.23300000,-0.44100000,0.86700000,-0.14000000,-0.18000000,0.15000000,0.04481591,0.05696789,0.15480486,-27.02000000,13.05000000,-0.03000000
286,0,-0.22800000,-0.44400000,0.86200000,0.15000000,0.06000000,0.10000000,0.04501044,0.05704571,0.15493455,-27.02000000,13.05000000,-0.03000000
287,0,-0.22800000,-0.44100000,0.86500000,-0.09000000,-0.18000000,-0.16000000,0.04488926,0.05680334,0.15471911,-27.02000000,13.05000000,-0.03000000
288,0,-0.22100000,-0.44400000,0.87300000,-0.16000000,-0.10000000,0.02000000,0.03624922,0.05140332,0.15579912,-27.02000000,13.05000000,-0.04000000
289,0,-0.22600000,-0.44700000,0.87200000,0.07000000,-0.09000000,-0.01000000,0.03635985,0.05126109,0.15578332,-27.02000000,13.05000000,-0.04000000
290,0,-0.22800000,-0.44100000,0.86800000,0.40000000,0.07000000,-0.05000000,0.03688679,0.05135331,0.15571745,-27.02000000,13.05000000,-0.04000000
291,0,-0.22100000,-0.44700000,0.86700000,0.08000000,0.04000000,0.03000000,0.03699054,0.05140518,0.15575635,-27.02000000,13.05000000,-0.04000000
292,0,-0.22900000,-0.44400000,0.86300000,0.05000000,0.07000000,-0.08000000,0.03705558,0.05149623,0.15565230,-27.02000000,13.05000000,-0.04000000
293,0,-0.22500000,-0.44500000,0.86600000,0.31000000,0.14000000,0.23000000,0.03748820,0.05169161,0.15597328,-27.02000000,13.05000000,-0.04000000
294,0,-0.22600000,-0.44400000,0.86900000,-0.03000000,0.17000000,-0.03000000,0.03584976,0.06097610,0.15433484,-27.02000000,13.05000000,-0.04000000
295,0,-0.22600000,-0.44300000,0.86600000,-0.05000000,-0.14000000,0.06000000,0.03576716,0.06074480,0.15443397,-27.02000000,13.05000000,-0.04000000
296,0,-0.22800000,-0.44400000,0.87000000,-0.23000000,0.04000000,0.35000000,0.03545287,0.06079946,0.15491223,-27.02000000,13.05000000,-0.04000000
297,0,-0.22500000,-0.44100000,0.86400000,0.04000000,0.07000000,-0.12000000,0.03550554,0.06089164,0.15475421,-27.02000000,13.05000000,-0.04000000
298,0,-0.22300000,-0.43600000,0.86400000,0.32000000,-0.15000000,-0.03000000,0.03592435,0.06069533,0.15471494,-27.02000000,13.05000000,-0.04000000
299,0,-0.22900000,-0.44400000,0.86800000,-0.12000000,-0.38000000,-0.09000000,0.03572773,0.06007269,0.15456748,-27.02000000,13.05000000,-0.04000000
300,0,-0.22600000,-0.43900000,0.86900000,0.18000000,0.05000000,-0.21000000,0.04584865,0.06288406,0.14275974,-27.02000000,13.05000000,-0.04000000
301,0,-0.22200000,-0.44300000,0.87100000,-0.05000000,0.07000000,-0.07000000,0.04577347,0.06298931,0.14265449,-27.02000000,13.05000000,-0.04000000
302,0,-0.22900000,-0.44300000,0.87000000,-0.04000000,-0.10000000,0.08000000,0.04571615,0.06284601,0.14276913,-27.02000000,13.05000000,-0.04000000
303,0,-0.22600000,-0.44400000,0.86800000,0.06000000,-0.26000000,0.00000000,0.04580134,0.06247684,0.14276913,-27.02000000,13.05000000,-0.04000000
304,0,-0.22200000,-0.44100000,0.86800000,0.04000000,-0.26000000,0.07000000,0.04585632,0.06211944,0.14286535,-27.02000000,13.05000000,-0.04000000
305,0,-0.23500000,-0.44800000,0.86300000,-0.08000000,-0.00000000,0.16000000,0.04573734,0.06211944,0.14310333,-27.02000000,13.05000000,-0.03000000
306,0,-0.22200000,-0.43800000,0.87300000,-0.13000000,0.39000000,0.17000000,0.04555325,0.06267171,0.14334406,-27.01000000,13.05000000,-0.03000000
307,0,-0.22200000,-0.44500000,0.86500000,0.02000000,-0.06000000,-0.30000000,0.04661835,0.05947640,0.12736751,-27.01000000,13.05000000,-0.03000000
308,0,-0.22700000,-0.44100000,0.86500000,-0.01000000,0.05000000,0.11000000,0.04660389,0.05954872,0.12752661,-27.01000000,13.05000000,-0.03000000
309,0,-0.22400000,-0.44600000,0.87300000,-0.16000000,0.19000000,-0.11000000,0.04627520,0.05993904,0.12730063,-27.02000000,13.05000000,-0.03000000
310,0,-0.22600000,-0.44400000,0.86600000,0.13000000,-0.03000000,0.03000000,0.04647565,0.05989278,0.12734689,-27.02000000,13.05000000,-0.03000000
311,0,-0.22700000,-0.44300000,0.87100000,0.05000000,-0.08000000,-0.02000000,0.04657529,0.05973335,0.12730703,-27.02000000,13.05000000,-0.03000000
312,0,-0.22500000,-0.44600000,0.86700000,0.11000000,-0.00000000,0.07000000,0.04674362,0.05973335,0.12741415,-27.02000000,13.05000000,-0.03000000
313,0,-0.22400000,-0.44500000,0.86300000,-0.03000000,-0.17000000,-0.02000000,0.04515442,0.05072788,0.12635469,-27.02000000,13.05000000,-0.03000000
314,0,-0.21800000,-0.44300000,0.86700000,-0.05000000,0.02000000,0.14000000,0.04508023,0.05075756,0.12656241,-27.02000000,13.05000000,-0.03000000
315,0,-0.22500000,-0.44300000,0.87000000,0.10000000,-0.01000000,-0.22000000,0.04522506,0.05074307,0.12624380,-27.02000000,13.05000000,-0.03000000
316,0,-0.22300000,-0.44400000,0.86700000,0.08000000,-0.07000000,-0.14000000,0.04536819,0.05061783,0.12599331,-27.02000000,13.05000000,-0.03000000
317,0,-0.22500000,-0.44000000,0.86800000,0.08000000,-0.06000000,0.09000000,0.04564665,0.05040898,0.12630658,-27.02000000,13.05000000,-0.03000000
318,0,-0.22400000,-0.44500000,0.87000000,0.11000000,0.10000000,0.23000000,0.04580837,0.05055600,0.12664472,-27.02000000,13.05000000,-0.03000000
319,0,-0.22400000,-0.44400000,0.86900000,0.14000000,-0.07000000,0.29000000,0.05296960,0.04697539,0.14147869,-27.02000000,13.05000000,-0.03000000
320,0,-0.22300000,-0.43800000,0.86700000,-0.09000000,-0.15000000,-0.16000000,0.05285421,0.04678308,0.14127356,-27.02000000,13.05000000,-0.03000000
321,0,-0.22600000,-0.44500000,0.86800000,-0.24000000,-0.10000000,0.06000000,0.05254177,0.04665289,0.14135167,-27.02000000,13.05000000,-0.03000000
322,0,-0.22800000,-0.44400000,0.86800000,0.03000000,0.07000000,0.15000000,0.05258086,0.04674410,0.14154713,-27.02000000,13.05000000,-0.03000000
323,0,-0.22100000,-0.44300000,0.86900000,-0.21000000,-0.06000000,-0.10000000,0.05231543,0.04666827,0.14142074,-27.02000000,13.05000000,-0.03000000
324,0,-0.22700000,-0.43800000,0.86800000,-0.00000000,0.16000000,0.10000000,0.05231543,0.04686768,0.14154537,-27.02000000,13.05000000,-0.03000000
325,0,-0.22300000,-0.44300000,0.87000000,0.00000000,0.13000000,0.03000000,0.05231543,0.05386818,0.14316087,-27.02000000,13.05000000,-0.03000000
326,0,-0.22800000,-0.44500000,0.86600000,-0.00000000,0.10000000,0.11000000,0.05231543,0.05399775,0.14330339,-27.02000000,13.05000000,-0.03000000
327,0,-0.22100000,-0.44100000,0.86400000,-0.01000000,0.05000000,-0.01000000,0.05230307,0.05405954,0.14329103,-27.02000000,13.05000000,-0.03000000
328,0,-0.22500000,-0.44600000,0.86500000,0.29000000,0.14000000,-0.06000000,0.05266021,0.05423196,0.14321714,-27.02000000,13.05000000,-0.03000000
329,0,-0.22500000,-0.44000000,0.86600000,0.23000000,-0.10000000,-0.08000000,0.05294555,0.05410790,0.14311789,-27.02000000,13.05000000,-0.03000000
330,0,-0.22800000,-0.44300000,0.86900000,0.04000000,0.25000000,-0.17000000,0.05299615,0.05442412,0.14290286,-27.02000000,13.05000000,-0.03000000
331,0,-0.23100000,-0.44300000,0.86500000,0.41000000,-0.10000000,0.05000000,0.07566049,0.04889624,0.14566680,-27.02000000,13.05000000,-0.03000000
332,0,-0.22900000,-0.44200000,0.86500000,-0.14000000,0.13000000,0.19000000,0.07547555,0.04906796,0.14591778,-27.02000000,13.05000000,-0.03000000
333,0,-0.22800000,-0.44500000,0.87400000,-0.23000000,-0.05000000,-0.06000000,0.07518676,0.04900518,0.14584245,-27.02000000,13.05000000,-0.03000000
334,0,-0.21600000,-0.44600000,0.86800000,-0.08000000,0.10000000,-0.11000000,0.07508755,0.04912919,0.14570603,-27.02000000,13.05000000,-0.03000000
335,0,-0.22700000,-0.43900000,0.86800000,0.18000000,0.35000000,0.02000000,0.07531073,0.04956315,0.14573083,-27.02000000,13.05000000,-0.03000000
336,0,-0.22800000,-0.44700000,0.86800000,0.18000000,0.03000000,-0.03000000,0.07553940,0.04960126,0.14569272,-27.02000000,13.05000000,-0.04000000
337,0,-0.22500000,-0.44200000,0.86600000,0.20000000,0.05000000,-0.03000000,0.08638571,0.05231284,0.14406577,-27.02000000,13.05000000,-0.04000000
338,0,-0.23100000,-0.44300000,0.86700000,-0.09000000,0.22000000,-0.11000000,0.08626315,0.05261241,0.14391598,-27.02000000,13.05000000,-0.04000000
339,0,-0.22300000,-0.43600000,0.86700000,-0.21000000,0.25000000,-0.19000000,0.08594905,0.05298634,0.14363180,-27.02000000,13.05000000,-0.04000000
340,0,-0.22900000,-0.44100000,0.86900000,0.22000000,0.32000000,0.06000000,0.08623756,0.05340599,0.14371049,-27.02000000,13.05000000,-0.04000000
341,0,-0.22800000,-0.44200000,0.86400000,0.23000000,-0.29000000,0.08000000,0.08653771,0.05302755,0.14381488,-27.02000000,13.05000000,-0.04000000
342,0,-0.22600000,-0.44800000,0.86900000,-0.09000000,-0.07000000,0.00000000,0.08641537,0.05293239,0.14381488,-27.02000000,13.05000000,-0.04000000
343,0,-0.22400000,-0.44300000,0.86200000,0.12000000,0.33000000,-0.03000000,0.09286575,0.07067096,0.14220229,-27.02000000,13.05000000,-0.04000000
344,0,-0.22300000,-0.43700000,0.87200000,0.27000000,0.06000000,0.03000000,0.09323464,0.07075294,0.14224327,-27.02000000,13.05000000,-0.04000000
345,0,-0.22700000,-0.43900000,0.86700000,-0.18000000,0.01000000,-0.13000000,0.09299108,0.07076647,0.14206737,-27.02000000,13.05000000,-0.04000000
346,0,-0.22400000,-0.44400000,0.86400000,0.07000000,0.33000000,0.03000000,0.09309014,0.07123346,0.14210982,-27.02000000,13.05000000,-0.04000000
347,0,-0.22100000,-0.44600000,0.86800000,0.08000000,-0.23000000,0.05000000,0.09319861,0.07092158,0.14217762,-27.02000000,13.05000000,-0.04000000
348,0,-0.22400000,-0.44000000,0.87100000,0.20000000,0.16000000,0.10000000,0.09347263,0.07114079,0.14231462,-27.02000000,13.05000000,-0.04000000
349,0,-0.22700000,-0.44600000,0.86800000,0.18000000,-0.16000000,-0.14000000,0.10329725,0.06240779,0.13467325,-27.02000000,13.05000000,-0.04000000
350,0,-0.22200000,-0.44700000,0.86900000,0.08000000,-0.01000000,-0.04000000,0.10340795,0.06239395,0.13461790,-27.02000000,13.05000000,-0.04000000
351,0,-0.23000000,-0.44700000,0.86600000,-0.08000000,-0.30000000,-0.01000000,0.10327576,0.06189825,0.13460138,-27.02000000,13.05000000,-0.04000000
352,0,-0.22400000,-0.44400000,0.86800000,0.13000000,-0.19000000,0.02000000,0.10344801,0.06164650,0.13462788,-27.02000000,13.05000000,-0.04000000
353,0,-0.22200000,-0.44600000,0.86500000,-0.04000000,0.01000000,0.23000000,0.10339607,0.06165948,0.13492654,-27.02000000,13.05000000,-0.04000000
354,0,-0.23100000,-0.44500000,0.86500000,0.04000000,0.22000000,0.02000000,0.10344990,0.06195554,0.13495345,-27.02000000,13.05000000,-0.04000000
355,0,-0.22700000,-0.44000000,0.87100000,0.26000000,0.05000000,0.01000000,0.11736865,0.06463223,0.13548879,-27.02000000,13.05000000,-0.04000000
356,0,-0.22400000,-0.44400000,0.86800000,-0.18000000,-0.05000000,-0.01000000,0.11712461,0.06456444,0.13547523,-27.02000000,13.05000000,-0.04000000
357,0,-0.22800000,-0.44400000,0.86300000,0.08000000,-0.12000000,-0.41000000,0.11723082,0.06440513,0.13493091,-27.02000000,13.05000000,-0.04000000
358,0,-0.22400000,-0.44600000,0.86700000,0.02000000,0.11000000,-0.02000000,0.11725822,0.06455581,0.13490351,-27.02000000,13.05000000,-0.04000000
359,0,-0.23000000,-0.44300000,0.86400000,-0.13000000,0.29000000,0.19000000,0.11708628,0.06493936,0.13515481,-27.02000000,13.05000000,-0.04000000
360,0,-0.22600000,-0.43900000,0.86900000,0.06000000,0.07000000,-0.05000000,0.11716644,0.06503288,0.13508801,-27.02000000,13.05000000,-0.04000000
361,0,-0.22700000,-0.44300000,0.86400000,0.24000000,-0.02000000,-0.12000000,0.13014406,0.06395141,0.12859920,-27.02000000,13.05000000,-0.04000000
362,0,-0.22200000,-0.44400000,0.86700000,-0.03000000,-0.02000000,-0.15000000,0.13010078,0.06392256,0.12838282,-27.02000000,13.05000000,-0.04000000
363,0,-0.22300000,-0.44100000,0.86700000,-0.07000000,0.02000000,0.01000000,0.13000191,0.06395081,0.12839694,-27.02000000,13.05000000,-0.04000000
364,0,-0.22500000,-0.44200000,0.87200000,-0.18000000,0.02000000,-0.02000000,0.12974307,0.06397957,0.12836818,-27.02000000,13.05000000,-0.04000000
365,0,-0.22600000,-0.44400000,0.86300000,0.06000000,0.03000000,-0.22000000,0.12984106,0.06402857,0.12800886,-27.02000000,13.05000000,-0.04000000
366,0,-0.22400000,-0.44800000,0.86400000,0.04000000,0.03000000,0.07000000,0.12990221,0.06407443,0.12811587,-27.02000000,13.05000000,-0.04000000
367,0,-0.22500000,-0.44300000,0.86800000,0.09000000,-0.02000000,0.01000000,0.13475234,0.06299662,0.12865477,-27.02000000,13.05000000,-0.04000000
368,0,-0.22500000,-0.44000000,0.86400000,0.04000000,0.05000000,-0.36000000,0.13481255,0.06307188,0.12811288,-27.02000000,13.05000000,-0.04000000
369,0,-0.22700000,-0.44600000,0.87200000,0.05000000,0.05000000,0.07000000,0.13488642,0.06314575,0.12821630,-27.02000000,13.05000000,-0.04000000
370,0,-0.22600000,-0.44000000,0.86700000,-0.06000000,0.04000000,0.12000000,0.13479961,0.06320362,0.12838992,-27.02000000,13.05000000,-0.04000000
371,0,-0.22900000,-0.43900000,0.86600000,0.12000000,-0.31000000,0.07000000,0.13497815,0.06274239,0.12849407,-27.02000000,13.05000000,-0.04000000
372,0,-0.22700000,-0.44500000,0.86900000,0.17000000,0.04000000,0.01000000,0.13529418,0.06281676,0.12851266,-27.02000000,13.05000000,-0.04000000
373,0,-0.22600000,-0.44300000,0.87100000,0.20000000,-0.08000000,-0.12000000,0.14586611,0.05858798,0.12216950,-27.02000000,13.05000000,-0.04000000
374,0,-0.22100000,-0.44200000,0.86700000,0.07000000,0.16000000,0.07000000,0.14596733,0.05881932,0.12227071,-27.02000000,13.05000000,-0.04000000
375,0,-0.22100000,-0.44100000,0.87000000,0.04000000,-0.00000000,-0.28000000,0.14601975,0.05881932,0.12190372,-27.02000000,13.05000000,-0.04000000
376,0,-0.22100000,-0.44300000,0.86900000,-0.22000000,0.22000000,0.07000000,0.14573518,0.05910390,0.12199426,-27.02000000,13.05000000,-0.04000000
377,0,-0.22000000,-0.44400000,0.86500000,0.06000000,-0.02000000,-0.02000000,0.14581342,0.05907782,0.12196818,-27.02000000,13.05000000,-0.04000000
378,0,-0.22200000,-0.44300000,0.86700000,0.04000000,0.17000000,0.04000000,0.14587041,0.05932005,0.12202518,-27.02000000,13.05000000,-0.04000000
379,0,-0.22400000,-0.44500000,0.86600000,-0.06000000,-0.17000000,0.04000000,0.14263574,0.05015513,0.12418163,-27.02000000,13.05000000,-0.04000000
380,0,-0.23100000,-0.44700000,0.86600000,0.28000000,0.05000000,-0.04000000,0.14306181,0.05023121,0.12412076,-27.02000000,13.05000000,-0.04000000
381,0,-0.22600000,-0.44300000,0.87100000,0.00000000,0.24000000,-0.02000000,0.14306181,0.05055385,0.12409388,-27.02000000,13.05000000,-0.04000000
382,0,-0.22500000,-0.44500000,0.86800000,-0.16000000,-0.08000000,-0.05000000,0.14284771,0.05044680,0.12402697,-27.02000000,13.05000000,-0.04000000
383,0,-0.22500000,-0.44500000,0.86500000,-0.16000000,-0.12000000,0.10000000,0.14264044,0.05029134,0.12415652,-27.02000000,13.05000000,-0.04000000
384,0,-0.23500000,-0.44100000,0.86800000,-0.12000000,-0.17000000,0.19000000,0.14246353,0.05004072,0.12443662,-27.02000000,13.05000000,-0.04000000
385,0,-0.22200000,-0.44400000,0.87300000,0.01000000,0.05000000,-0.06000000,0.14300625,0.05275430,0.12118033,-27.03000000,13.05000000,-0.04000000
386,0,-0.23000000,-0.43800000,0.87300000,-0.02000000,0.14000000,-0.11000000,0.14298017,0.05293686,0.12103689,-27.03000000,13.05000000,-0.04000000
387,0,-0.22200000,-0.44600000,0.87000000,-0.08000000,-0.00000000,0.17000000,0.14287926,0.05293686,0.12125131,-27.03000000,13.05000000,-0.04000000
388,0,-0.22500000,-0.44300000,0.86600000,-0.18000000,-0.10000000,-0.03000000,0.14265673,0.05281323,0.12121422,-27.03000000,13.05000000,-0.04000000
389,0,-0.22800000,-0.44200000,0.86900000,0.12000000,-0.17000000,0.12000000,0.14280445,0.05260395,0.12136195,-27.03000000,13.05000000,-0.04000000
390,0,-0.22400000,-0.43900000,0.87100000,-0.00000000,0.06000000,-0.07000000,0.14280445,0.05267865,0.12127481,-27.03000000,13.05000000,-0.04000000
391,0,-0.23200000,-0.44000000,0.86700000,-0.03000000,-0.12000000,-0.03000000,0.14117465,0.04615942,0.11964500,-27.03000000,13.05000000,-0.04000000
392,0,-0.22200000,-0.44500000,0.86700000,-0.21000000,0.13000000,0.10000000,0.14087517,0.04634481,0.11978761,-27.03000000,13.05000000,-0.04000000
393,0,-0.22500000,-0.44300000,0.87000000,-0.22000000,0.05000000,-0.01000000,0.14057355,0.04641336,0.11977390,-27.03000000,13.05000000,-0.04000000
394,0,-0.22600000,-0.44100000,0.86600000,0.04000000,-0.03000000,-0.18000000,0.14062847,0.04637217,0.11952673,-27.03000000,13.05000000,-0.04000000
395,0,-0.22600000,-0.44300000,0.86900000,-0.03000000,0.03000000,-0.18000000,0.14058742,0.04641323,0.11928038,-27.03000000,13.05000000,-0.04000000
396,0,-0.22600000,-0.44500000,0.87000000,-0.04000000,-0.12000000,0.01000000,0.14053072,0.04624313,0.11929456,-27.03000000,13.05000000,-0.04000000
397,0,-0.22400000,-0.45000000,0.86800000,-0.17000000,0.01000000,0.04000000,0.13125409,0.04678881,0.12147729,-27.03000000,13.05000000,-0.05000000
398,0,-0.22500000,-0.44500000,0.86900000,0.01000000,-0.07000000,-0.19000000,0.13126977,0.04667904,0.12117934,-27.03000000,13.05000000,-0.05000000
399,0,-0.22600000,-0.44300000,0.87000000,0.09000000,-0.10000000,0.01000000,0.13140872,0.04652465,0.12119478,-27.03000000,13.05000000,-0.05000000
400,0,-0.23000000,-0.44100000,0.87100000,0.05000000,0.05000000,-0.14000000,0.13147904,0.04659498,0.12099786,-27.03000000,13.05000000,-0.05000000
401,0,-0.22300000,-0.43900000,0.86900000,0.11000000,0.08000000,-0.07000000,0.13163159,0.04670592,0.12090079,-27.03000000,13.05000000,-0.05000000
402,0,-0.22600000,-0.44500000,0.86700000,-0.03000000,-0.07000000,0.01000000,0.13158750,0.04660304,0.12091549,-27.03000000,13.05000000,-0.05000000
403,0,-0.22700000,-0.44100000,0.86500000,0.03000000,0.21000000,0.18000000,0.13318416,0.05777972,0.13049550,-27.03000000,13.05000000,-0.05000000
404,0,-0.22600000,-0.44300000,0.86500000,-0.15000000,0.04000000,0.13000000,0.13297157,0.05783641,0.13067974,-27.03000000,13.05000000,-0.05000000
405,0,-0.22600000,-0.44400000,0.86800000,-0.03000000,0.06000000,-0.19000000,0.13293278,0.05791400,0.13043402,-27.03000000,13.05000000,-0.05000000
406,0,-0.22200000,-0.44300000,0.86700000,0.06000000,-0.18000000,0.23000000,0.13300794,0.05768851,0.13072215,-27.03000000,13.04000000,-0.05000000
407,0,-0.22100000,-0.44600000,0.86600000,0.00000000,-0.07000000,0.05000000,0.13300794,0.05760225,0.13078376,-27.03000000,13.04000000,-0.05000000
408,0,-0.22500000,-0.44300000,0.87000000,0.26000000,0.05000000,0.13000000,0.13332969,0.05766413,0.13094464,-27.03000000,13.05000000,-0.05000000
409,0,-0.22600000,-0.44400000,0.87000000,0.09000000,-0.10000000,0.07000000,0.13820651,0.05224543,0.13473772,-27.03000000,13.05000000,-0.05000000
410,0,-0.22500000,-0.44200000,0.86600000,0.00000000,0.21000000,-0.07000000,0.13820651,0.05257535,0.13462775,-27.03000000,13.05000000,-0.05000000
411,0,-0.22600000,-0.44300000,0.86600000,-0.15000000,0.05000000,0.09000000,0.13800458,0.05264266,0.13474891,-27.03000000,13.05000000,-0.05000000
412,0,-0.22500000,-0.44300000,0.86800000,-0.05000000,0.06000000,0.08000000,0.13793903,0.05272132,0.13485378,-27.03000000,13.05000000,-0.05000000
413,0,-0.22900000,-0.44500000,0.86600000,-0.13000000,0.16000000,-0.06000000,0.13777221,0.05292664,0.13477679,-27.03000000,13.05000000,-0.05000000
414,0,-0.22100000,-0.44400000,0.87400000,-0.02000000,0.23000000,0.26000000,0.13774332,0.05325886,0.13515234,-27.03000000,13.05000000,-0.05000000
415,0,-0.22700000,-0.44600000,0.86700000,-0.03000000,-0.06000000,0.29000000,0.13613445,0.05004112,0.15070476,-27.03000000,13.05000000,-0.05000000
416,0,-0.22600000,-0.44300000,0.87000000,0.28000000,0.09000000,0.07000000,0.13649884,0.05015825,0.15079586,-27.03000000,13.05000000,-0.05000000
417,0,-0.22300000,-0.44400000,0.86600000,-0.17000000,0.08000000,0.01000000,0.13628737,0.05025776,0.15080829,-27.03000000,13.05000000,-0.05000000
418,0,-0.22700000,-0.43900000,0.86900000,-0.28000000,0.10000000,0.01000000,0.13592759,0.05038626,0.15082114,-27.03000000,13.05000000,-0.05000000
419,0,-0.22900000,-0.44100000,0.86700000,-0.05000000,0.11000000,0.01000000,0.13586286,0.05052865,0.15083409,-27.04000000,13.05000000,-0.05000000
420,0,-0.22700000,-0.44400000,0.86700000,0.11000000,-0.08000000,-0.12000000,0.13618441,0.05029480,0.15048332,-27.04000000,13.05000000,-0.05000000
421,0,-0.22600000,-0.44200000,0.86300000,0.03000000,0.11000000,0.07000000,0.13781734,0.05628224,0.15429351,-27.04000000,13.05000000,-0.05000000
422,0,-0.22400000,-0.44300000,0.86900000,0.11000000,-0.02000000,-0.11000000,0.13810723,0.05622954,0.15400362,-27.04000000,13.05000000,-0.05000000
423,0,-0.22400000,-0.44200000,0.86600000,-0.05000000,-0.15000000,0.00000000,0.13803524,0.05601355,0.15400362,-27.04000000,13.05000000,-0.05000000
424,0,-0.22700000,-0.43900000,0.86500000,-0.02000000,0.04000000,-0.13000000,0.13794783,0.05618837,0.15343545,-27.04000000,13.05000000,-0.05000000
425,0,-0.22600000,-0.44800000,0.86300000,0.17000000,0.23000000,0.23000000,0.13886324,0.05742687,0.15467395,-27.04000000,13.05000000,-0.05000000
426,0,-0.22600000,-0.44400000,0.86300000,-0.17000000,-0.11000000,-0.01000000,0.13860366,0.05725891,0.15465868,-27.04000000,13.05000000,-0.05000000
427,0,-0.22300000,-0.44000000,0.86700000,-0.07000000,-0.12000000,0.06000000,0.13530022,0.05159587,0.15749020,-27.04000000,13.05000000,-0.05000000
428,0,-0.22000000,-0.44200000,0.86600000,0.23000000,0.01000000,-0.08000000,0.13563146,0.05161028,0.15737498,-27.04000000,13.05000000,-0.05000000
429,0,-0.22300000,-0.44300000,0.86500000,-0.07000000,-0.05000000,0.03000000,0.13554233,0.05154661,0.15741318,-27.04000000,13.05000000,-0.05000000
430,0,-0.22200000,-0.44600000,0.86500000,0.17000000,0.03000000,0.09000000,0.13576105,0.05158521,0.15752898,-27.04000000,13.05000000,-0.05000000
431,0,-0.22100000,-0.44400000,0.86500000,0.04000000,0.12000000,0.03000000,0.13580880,0.05172845,0.15756479,-27.04000000,13.05000000,-0.05000000
432,0,-0.22300000,-0.44000000,0.86600000,0.01000000,0.05000000,-0.10000000,0.13582112,0.05179006,0.15744156,-27.04000000,13.05000000,-0.05000000
433,0,-0.22800000,-0.44300000,0.86500000,-0.09000000,0.04000000,0.05000000,0.13569136,0.05184773,0.15751365,-27.04000000,13.05000000,-0.05000000
434,0,-0.22500000,-0.44000000,0.86600000,-0.06000000,0.05000000,0.03000000,0.13246166,0.05453915,0.15912850,-27.04000000,13.05000000,-0.05000000
435,0,-0.22300000,-0.44700000,0.86700000,0.01000000,-0.30000000,0.10000000,0.13247326,0.05419115,0.15924450,-27.04000000,13.05000000,-0.05000000
436,0,-0.22600000,-0.44100000,0.85800000,0.01000000,0.19000000,0.01000000,0.13248385,0.05439248,0.15925510,-27.04000000,13.05000000,-0.05000000
437,0,-0.22500000,-0.44400000,0.86500000,-0.28000000,-0.23000000,-0.25000000,0.13217501,0.05413878,0.15897934,-27.04000000,13.05000000,-0.05000000
438,0,-0.22300000,-0.44500000,0.86600000,-0.34000000,-0.12000000,-0.08000000,0.13174842,0.05398822,0.15887897,-27.04000000,13.05000000,-0.05000000
439,0,-0.22400000,-0.44000000,0.86700000,-0.13000000,0.03000000,-0.24000000,0.13158624,0.05402565,0.15857957,-27.04000000,13.05000000,-0.05000000
440,0,-0.23000000,-0.44000000,0.86800000,0.14000000,0.07000000,-0.12000000,0.13934842,0.05790673,0.15192627,-27.04000000,13.05000000,-0.05000000
441,0,-0.22300000,-0.44600000,0.86200000,0.01000000,-0.06000000,-0.12000000,0.13935958,0.05783979,0.15179239,-27.04000000,13.05000000,-0.05000000
442,0,-0.22500000,-0.44000000,0.86900000,0.10000000,0.16000000,-0.32000000,0.13946485,0.05800823,0.15145552,-27.04000000,13.05000000,-0.06000000
443,0,-0.22600000,-0.44100000,0.86700000,-0.11000000,-0.08000000,-0.31000000,0.13935432,0.05792785,0.15114404,-27.04000000,13.05000000,-0.06000000
444,0,-0.22800000,-0.44400000,0.86900000,0.11000000,-0.02000000,0.06000000,0.13946362,0.05790797,0.15120365,-27.04000000,13.05000000,-0.06000000
445,0,-0.22200000,-0.44700000,0.86400000,0.36000000,-0.01000000,0.26000000,0.13982191,0.05789802,0.15146242,-27.04000000,13.05000000,-0.05000000
446,0,-0.22500000,-0.43800000,0.86500000,-0.02000000,-0.06000000,-0.03000000,0.13871312,0.05457166,0.14979924,-27.04000000,13.05000000,-0.05000000
447,0,-0.22300000,-0.43800000,0.86800000,0.06000000,0.06000000,-0.02000000,0.13877953,0.05463807,0.14977710,-27.04000000,13.05000000,-0.05000000
448,0,-0.22600000,-0.44500000,0.86800000,-0.03000000,-0.01000000,-0.19000000,0.13874636,0.05462701,0.14956698,-27.04000000,13.05000000,-0.05000000
449,0,-0.21900000,-0.44400000,0.86600000,0.12000000,-0.01000000,0.08000000,0.13887346,0.05461642,0.14965172,-27.04000000,13.05000000,-0.05000000
450,0,-0.22400000,-0.44100000,0.86300000,-0.01000000,0.15000000,0.01000000,0.13886307,0.05477225,0.14966211,-27.04000000,13.05000000,-0.05000000
451,0,-0.22400000,-0.44600000,0.86600000,-0.19000000,0.08000000,0.06000000,0.13866826,0.05485428,0.14972362,-27.04000000,13.05000000,-0.05000000
452,0,-0.22900000,-0.44000000,0.87000000,0.15000000,0.09000000,0.11000000,0.14696592,0.05983288,0.15580858,-27.04000000,13.05000000,-0.05000000
453,0,-0.22400000,-0.44400000,0.86800000,-0.11000000,-0.26000000,0.24000000,0.14684876,0.05955595,0.15606420,-27.04000000,13.05000000,-0.05000000
454,0,-0.22600000,-0.44500000,0.87100000,0.03000000,0.23000000,0.19000000,0.14687912,0.05978869,0.15625648,-27.05000000,13.05000000,-0.05000000
455,0,-0.22600000,-0.44200000,0.86800000,0.01000000,0.07000000,0.10000000,0.14688912,0.05985873,0.15635653,-27.05000000,13.05000000,-0.05000000
456,0,-0.23000000,-0.44200000,0.86400000,0.01000000,0.12000000,0.10000000,0.14689909,0.05997836,0.15645622,-27.05000000,13.05000000,-0.05000000
457,0,-0.21900000,-0.44500000,0.86800000,-0.12000000,0.04000000,-0.00000000,0.14677903,0.06001838,0.15645622,-27.05000000,13.05000000,-0.05000000
458,0,-0.22600000,-0.44200000,0.87000000,0.08000000,0.12000000,0.21000000,0.15128975,0.06678446,0.16829685,-27.05000000,13.05000000,-0.05000000
459,0,-0.22600000,-0.44300000,0.86600000,0.18000000,0.14000000,0.04000000,0.15148147,0.06693357,0.16833945,-27.05000000,13.05000000,-0.05000000
460,0,-0.22900000,-0.44300000,0.86500000,0.09000000,-0.16000000,0.04000000,0.15157130,0.06677387,0.16837938,-27.05000000,13.05000000,-0.05000000
461,0,-0.22300000,-0.44300000,0.86900000,-0.06000000,0.16000000,0.10000000,0.15151141,0.06693357,0.16847919,-27.05000000,13.05000000,-0.05000000
462,0,-0.22300000,-0.44400000,0.86900000,-0.24000000,0.11000000,-0.02000000,0.15127226,0.06704318,0.16845926,-27.05000000,13.05000000,-0.05000000
463,0,-0.22200000,-0.43800000,0.86700000,0.21000000,0.09000000,0.11000000,0.15148297,0.06713349,0.16856963,-27.05000000,13.05000000,-0.05000000
464,0,-0.22400000,-0.44400000,0.86600000,0.14000000,-0.17000000,-0.20000000,0.15924885,0.05770349,0.15747552,-27.05000000,13.05000000,-0.05000000
465,0,-0.22600000,-0.44300000,0.86800000,-0.11000000,0.13000000,-0.13000000,0.15913163,0.05784202,0.15733699,-27.05000000,13.05000000,-0.06000000
466,0,-0.22300000,-0.44200000,0.86700000,-0.03000000,-0.14000000,-0.17000000,0.15910133,0.05770058,0.15716524,-27.05000000,13.05000000,-0.06000000
467,0,-0.22800000,-0.44600000,0.86800000,-0.09000000,-0.03000000,0.00000000,0.15901070,0.05767037,0.15716524,-27.05000000,13.05000000,-0.06000000
468,0,-0.22800000,-0.44400000,0.86900000,0.14000000,0.04000000,-0.03000000,0.15915267,0.05771093,0.15713482,-27.05000000,13.05000000,-0.06000000
469,0,-0.22400000,-0.44300000,0.86700000,-0.05000000,-0.07000000,-0.19000000,0.15910218,0.05764025,0.15694296,-27.05000000,13.05000000,-0.05000000
470,0,-0.22300000,-0.43900000,0.86800000,0.17000000,-0.04000000,0.09000000,0.16857502,0.05541134,0.16195799,-27.05000000,13.05000000,-0.05000000
471,0,-0.22700000,-0.44100000,0.86900000,0.06000000,-0.10000000,-0.11000000,0.16863919,0.05530440,0.16184035,-27.05000000,13.05000000,-0.05000000
472,0,-0.22700000,-0.44700000,0.87000000,-0.16000000,-0.10000000,-0.13000000,0.16847808,0.05520371,0.16170945,-27.05000000,13.05000000,-0.06000000
473,0,-0.22400000,-0.44100000,0.86600000,0.02000000,0.08000000,-0.09000000,0.16849807,0.05528367,0.16161949,-27.05000000,13.05000000,-0.06000000
474,0,-0.22600000,-0.44700000,0.86400000,0.17000000,-0.07000000,0.01000000,0.16866876,0.05521339,0.16162953,-27.05000000,13.05000000,-0.06000000
475,0,-0.22700000,-0.44200000,0.86700000,0.01000000,-0.05000000,0.11000000,0.16867880,0.05516319,0.16173995,-27.05000000,13.04000000,-0.05000000
476,0,-0.22100000,-0.44500000,0.86800000,0.06000000,0.13000000,0.04000000,0.17205162,0.06247098,0.16398850,-27.05000000,13.05000000,-0.06000000
477,0,-0.22400000,-0.43900000,0.86600000,0.21000000,-0.20000000,0.08000000,0.17227309,0.06226005,0.16407287,-27.05000000,13.04000000,-0.06000000
478,0,-0.22700000,-0.44400000,0.86900000,0.03000000,-0.05000000,0.03000000,0.17230327,0.06220976,0.16410305,-27.04000000,13.04000000,-0.05000000
479,0,-0.22500000,-0.44500000,0.86600000,-0.06000000,0.13000000,-0.05000000,0.17224348,0.06233930,0.16405322,-27.05000000,13.04000000,-0.05000000
480,0,-0.23000000,-0.44400000,0.86600000,0.18000000,0.02000000,0.18000000,0.17242477,0.06235945,0.16423452,-27.05000000,13.04000000,-0.05000000
481,0,-0.22700000,-0.44400000,0.87100000,0.09000000,0.24000000,-0.08000000,0.17251503,0.06260014,0.16415429,-27.04000000,13.04000000,-0.05000000
482,0,-0.22600000,-0.44300000,0.86500000,-0.06000000,0.29000000,-0.05000000,0.16918510,0.07869483,0.16137934,-27.05000000,13.04000000,-0.06000000
483,0,-0.23000000,-0.44000000,0.87200000,0.17000000,0.20000000,-0.08000000,0.16936418,0.07890552,0.16129506,-27.05000000,13.04000000,-0.06000000
484,0,-0.22800000,-0.44200000,0.87000000,-0.06000000,0.06000000,-0.03000000,0.16930406,0.07896564,0.16126501,-27.05000000,13.05000000,-0.06000000
485,0,-0.22500000,-0.44300000,0.87000000,-0.18000000,0.21000000,-0.28000000,0.16912453,0.07917509,0.16098573,-27.05000000,13.04000000,-0.06000000
486,0,-0.22800000,-0.44400000,0.86800000,-0.30000000,-0.12000000,0.16000000,0.16882588,0.07905563,0.16114501,-27.05000000,13.05000000,-0.06000000
487,0,-0.22700000,-0.44700000,0.86800000,-0.00000000,0.10000000,-0.20000000,0.16882588,0.07915611,0.16094405,-27.05000000,13.05000000,-0.06000000
488,0,-0.22200000,-0.44200000,0.86700000,0.40000000,-0.03000000,-0.07000000,0.19142257,0.07746136,0.15698963,-27.05000000,13.04000000,-0.06000000
489,0,-0.22200000,-0.44600000,0.87100000,0.07000000,0.07000000,0.02000000,0.19149641,0.07753520,0.15701073,-27.05000000,13.05000000,-0.06000000
490,0,-0.22300000,-0.44200000,0.87000000,-0.08000000,0.11000000,0.01000000,0.19141581,0.07764602,0.15702080,-27.05000000,13.05000000,-0.06000000
491,0,-0.22800000,-0.44700000,0.87000000,-0.00000000,-0.25000000,0.12000000,0.19141581,0.07739583,0.15714089,-27.05000000,13.05000000,-0.06000000
492,0,-0.22900000,-0.44600000,0.86900000,0.07000000,0.01000000,0.11000000,0.19148650,0.07740593,0.15725197,-27.05000000,13.05000000,-0.06000000
493,0,-0.22600000,-0.44400000,0.86800000,0.07000000,-0.01000000,0.00000000,0.19155737,0.07739580,0.15725197,-27.05000000,13.05000000,-0.06000000
494,0,-0.23000000,-0.44600000,0.86400000,0.15000000,0.02000000,-0.01000000,0.19987914,0.07850537,0.15669719,-27.05000000,13.05000000,-0.06000000
495,0,-0.22400000,-0.44100000,0.86900000,-0.38000000,-0.05000000,0.22000000,0.19947593,0.07845232,0.15693062,-27.05000000,13.05000000,-0.06000000
496,0,-0.22500000,-0.44300000,0.86500000,0.19000000,-0.00000000,-0.17000000,0.19966616,0.07845232,0.15676041,-27.05000000,13.05000000,-0.06000000
497,0,-0.22400000,-0.44000000,0.87000000,0.03000000,0.10000000,0.08000000,0.19969612,0.07855218,0.15684030,-27.05000000,13.05000000,-0.06000000
498,0,-0.22100000,-0.44300000,0.86900000,-0.13000000,-0.05000000,0.18000000,0.19956513,0.07850180,0.15702168,-27.05000000,13.05000000,-0.06000000
499,0,-0.22600000,-0.44200000,0.86700000,-0.17000000,-0.04000000,0.25000000,0.19939581,0.07846196,0.15727067,-27.05000000,13.05000000,-0.06000000
500,0,-0.22900000,-0.44500000,0.86700000,-0.03000000,0.22000000,0.10000000,0.19773107,0.09067005,0.16281981,-27.05000000,13.05000000,-0.06000000
501,0,-0.22500000,-0.44100000,0.86900000,-0.05000000,0.14000000,0.22000000,0.19767890,0.09081613,0.16304936,-27.05000000,13.05000000,-0.06000000
502,0,-0.22100000,-0.43900000,0.86700000,0.15000000,-0.10000000,0.09000000,0.19782826,0.09071655,0.16313897,-27.05000000,13.05000000,-0.06000000
503,0,-0.22800000,-0.44200000,0.86900000,-0.20000000,0.04000000,-0.32000000,0.19762925,0.09075635,0.16282057,-27.05000000,13.05000000,-0.06000000
504,0,-0.22200000,-0.43800000,0.86900000,0.07000000,0.24000000,-0.08000000,0.19770032,0.09100002,0.16273934,-27.05000000,13.05000000,-0.06000000
505,0,-0.22700000,-0.44600000,0.86600000,0.04000000,-0.02000000,0.06000000,0.19774063,0.09097987,0.16279980,-27.05000000,13.05000000,-0.06000000
506,0,-0.22000000,-0.44400000,0.86200000,-0.29000000,-0.18000000,0.20000000,0.18135202,0.08080763,0.17410230,-27.06000000,13.05000000,-0.06000000
507,0,-0.23100000,-0.44400000,0.86800000,0.14000000,0.04000000,0.06000000,0.18150671,0.08085182,0.17416859,-27.06000000,13.05000000,-0.06000000
508,0,-0.23000000,-0.44400000,0.86700000,-0.13000000,-0.07000000,-0.16000000,0.18137416,0.08078045,0.17400546,-27.06000000,13.05000000,-0.06000000
509,0,-0.22700000,-0.44400000,0.87000000,-0.11000000,0.05000000,0.14000000,0.18126264,0.08083115,0.17414740,-27.06000000,13.05000000,-0.06000000
510,0,-0.22300000,-0.44100000,0.86900000,-0.21000000,-0.03000000,-0.13000000,0.18105298,0.08080120,0.17401761,-27.06000000,13.05000000,-0.06000000
511,0,-0.22300000,-0.44200000,0.86400000,0.00000000,-0.23000000,0.10000000,0.18105298,0.08057141,0.17411752,-27.06000000,13.05000000,-0.06000000
512,0,-0.22200000,-0.44400000,0.86700000,-0.08000000,0.26000000,0.22000000,0.17661890,0.09498216,0.18631124,-27.06000000,13.05000000,-0.06000000
513,0,-0.22100000,-0.44100000,0.86700000,0.00000000,0.20000000,-0.02000000,0.17661890,0.09519323,0.18629013,-27.06000000,13.05000000,-0.06000000
514,0,-0.22600000,-0.44400000,0.86700000,0.04000000,-0.05000000,0.01000000,0.17665911,0.09514298,0.18630018,-27.06000000,13.05000000,-0.06000000
515,0,-0.22700000,-0.44100000,0.86100000,0.12000000,0.10000000,0.12000000,0.17677997,0.09524370,0.18642104,-27.06000000,13.05000000,-0.06000000
516,0,-0.23000000,-0.44400000,0.86500000,0.10000000,0.04000000,-0.17000000,0.17688014,0.09528377,0.18625075,-27.06000000,13.05000000,-0.06000000
517,0,-0.21900000,-0.44500000,0.86600000,0.17000000,-0.05000000,0.04000000,0.17705071,0.09523360,0.18629089,-27.06000000,13.05000000,-0.06000000
518,0,-0.23200000,-0.44500000,0.86900000,-0.08000000,0.05000000,0.03000000,0.17261253,0.09800746,0.18795520,-27.06000000,13.05000000,-0.06000000
519,0,-0.22200000,-0.43700000,0.86700000,0.03000000,-0.02000000,0.16000000,0.17264431,0.09798627,0.18812471,-27.06000000,13.05000000,-0.06000000
520,0,-0.22300000,-0.44600000,0.86700000,0.08000000,-0.05000000,-0.26000000,0.17272483,0.09793595,0.18786303,-27.06000000,13.05000000,-0.06000000
521,0,-0.22100000,-0.44500000,0.86500000,0.20000000,0.16000000,0.20000000,0.17292698,0.09809767,0.18806518,-27.06000000,13.05000000,-0.06000000
522,0,-0.22800000,-0.44600000,0.87000000,-0.17000000,0.31000000,-0.14000000,0.17275706,0.09840753,0.18792524,-27.06000000,13.05000000,-0.06000000
523,0,-0.22400000,-0.43600000,0.86800000,-0.05000000,0.20000000,-0.16000000,0.17270701,0.09860773,0.18776508,-27.06000000,13.05000000,-0.06000000
524,0,-0.22500000,-0.44300000,0.87000000,-0.11000000,-0.08000000,0.21000000,0.16648348,0.09408153,0.19964637,-27.06000000,13.05000000,-0.06000000
525,0,-0.22100000,-0.44100000,0.86500000,-0.02000000,-0.04000000,-0.01000000,0.16646214,0.09403884,0.19963570,-27.06000000,13.05000000,-0.06000000
526,0,-0.23100000,-0.44200000,0.86700000,0.07000000,0.19000000,0.16000000,0.16653361,0.09423284,0.19979906,-27.06000000,13.05000000,-0.06000000
527,0,-0.22300000,-0.44500000,0.86300000,0.13000000,-0.12000000,0.20000000,0.16666361,0.09411283,0.19999907,-27.06000000,13.05000000,-0.06000000
528,0,-0.22600000,-0.44200000,0.87000000,-0.06000000,0.19000000,0.07000000,0.16660347,0.09430329,0.20006924,-27.06000000,13.05000000,-0.06000000
529,0,-0.22800000,-0.44200000,0.86800000,-0.24000000,0.09000000,-0.12000000,0.16636295,0.09439349,0.19994897,-27.06000000,13.05000000,-0.06000000
530,0,-0.22400000,-0.44100000,0.86500000,-0.05000000,-0.45000000,0.01000000,0.16359404,0.06947336,0.20050275,-27.06000000,13.05000000,-0.06000000
531,0,-0.22900000,-0.44500000,0.86800000,0.08000000,-0.32000000,0.01000000,0.16367849,0.06913557,0.20051331,-27.06000000,13.05000000,-0.06000000
532,0,-0.22700000,-0.44300000,0.86900000,0.28000000,-0.23000000,0.01000000,0.16396097,0.06890354,0.20052340,-27.06000000,13.04000000,-0.05000000
533,0,-0.22700000,-0.44400000,0.86900000,0.08000000,-0.01000000,0.05000000,0.16404166,0.06889345,0.20057383,-27.06000000,13.05000000,-0.05000000
534,0,-0.22000000,-0.44500000,0.86700000,0.08000000,0.07000000,-0.02000000,0.16412523,0.06896657,0.20055294,-27.06000000,13.04000000,-0.05000000
535,0,-0.22400000,-0.44200000,0.86800000,-0.19000000,0.13000000,-0.05000000,0.16393386,0.06909751,0.20050258,-27.06000000,13.04000000,-0.05000000
536,0,-0.22400000,-0.44400000,0.87200000,0.30000000,-0.15000000,-0.08000000,0.18057889,0.06077499,0.19606390,-27.06000000,13.04000000,-0.05000000
537,0,-0.23300000,-0.43900000,0.86600000,0.22000000,-0.15000000,-0.00000000,0.18081034,0.06061719,0.19606390,-27.06000000,13.04000000,-0.05000000
538,0,-0.22400000,-0.44600000,0.86700000,-0.05000000,0.04000000,-0.03000000,0.18075970,0.06065770,0.19603352,-27.06000000,13.04000000,-0.05000000
539,0,-0.22700000,-0.44300000,0.86700000,-0.00000000,0.09000000,0.16000000,0.18075970,0.06074772,0.19619357,-27.06000000,13.04000000,-0.05000000
540,0,-0.22700000,-0.44200000,0.86600000,-0.18000000,-0.08000000,-0.11000000,0.18057000,0.06066341,0.19607764,-27.06000000,13.04000000,-0.05000000
541,0,-0.23100000,-0.44400000,0.86800000,0.07000000,0.11000000,-0.04000000,0.18064112,0.06077517,0.19603700,-27.06000000,13.04000000,-0.05000000
542,0,-0.22700000,-0.44500000,0.87000000,0.09000000,-0.20000000,-0.14000000,0.18571494,0.04950000,0.18814438,-27.06000000,13.04000000,-0.05000000
543,0,-0.21800000,-0.44500000,0.87100000,-0.10000000,-0.10000000,-0.12000000,0.18560860,0.04939365,0.18801676,-27.06000000,13.04000000,-0.06000000
544,0,-0.22800000,-0.44200000,0.86400000,0.18000000,0.12000000,-0.16000000,0.18578895,0.04951389,0.18785645,-27.06000000,13.04000000,-0.06000000
545,0,-0.22600000,-0.44300000,0.86700000,-0.16000000,0.22000000,-0.07000000,0.18562929,0.04973342,0.18778660,-27.06000000,13.04000000,-0.06000000
546,0,-0.22800000,-0.44200000,0.87300000,-0.01000000,0.09000000,-0.14000000,0.18561931,0.04982319,0.18764696,-27.06000000,13.04000000,-0.06000000
547,0,-0.23400000,-0.44100000,0.87000000,0.06000000,0.18000000,0.13000000,0.18567936,0.05000332,0.18777706,-27.06000000,13.04000000,-0.06000000
548,0,-0.22900000,-0.44200000,0.86500000,-0.17000000,0.03000000,0.14000000,0.17573522,0.05175817,0.19596635,-27.06000000,13.04000000,-0.06000000
549,0,-0.22300000,-0.44200000,0.86500000,-0.12000000,-0.15000000,-0.17000000,0.17560738,0.05159837,0.19578524,-27.06000000,13.04000000,-0.06000000
550,0,-0.23000000,-0.44300000,0.86600000,0.06000000,0.04000000,-0.06000000,0.17566875,0.05163928,0.19572386,-27.06000000,13.04000000,-0.06000000
551,0,-0.22600000,-0.44400000,0.87200000,-0.10000000,-0.12000000,-0.18000000,0.17553978,0.05148452,0.19549171,-27.06000000,13.04000000,-0.06000000
552,0,-0.23100000,-0.44600000,0.87100000,-0.06000000,0.04000000,-0.12000000,0.17547827,0.05152553,0.19536868,-27.07000000,13.04000000,-0.06000000
553,0,-0.22500000,-0.44200000,0.86700000,0.15000000,-0.05000000,-0.22000000,0.17562906,0.05147527,0.19514752,-27.07000000,13.04000000,-0.06000000
554,0,-0.22300000,-0.44300000,0.86300000,-0.01000000,0.02000000,-0.20000000,0.17561767,0.05149804,0.19491976,-27.07000000,13.04000000,-0.06000000
555,0,-0.22400000,-0.44300000,0.86700000,-0.05000000,-0.02000000,0.17000000,0.17286588,0.05039733,0.20427583,-27.07000000,13.04000000,-0.06000000
556,0,-0.22300000,-0.44200000,0.86700000,-0.04000000,-0.07000000,0.11000000,0.17282296,0.05032220,0.20439388,-27.06000000,13.04000000,-0.06000000
557,0,-0.22600000,-0.44500000,0.86800000,-0.04000000,0.11000000,0.20000000,0.17277073,0.05046583,0.20465502,-27.06000000,13.04000000,-0.06000000
558,0,-0.22500000,-0.44500000,0.86700000,0.24000000,-0.01000000,-0.01000000,0.17307711,0.05045306,0.20464225,-27.06000000,13.04000000,-0.06000000
559,0,-0.22600000,-0.44600000,0.86600000,-0.09000000,-0.12000000,-0.14000000,0.17298464,0.05032977,0.20449841,-27.06000000,13.04000000,-0.06000000
560,0,-0.22700000,-0.44300000,0.87200000,0.12000000,0.15000000,0.02000000,0.17310728,0.05048306,0.20451885,-27.06000000,13.04000000,-0.06000000
561,0,-0.22200000,-0.44300000,0.86300000,0.13000000,-0.11000000,-0.02000000,0.18036426,0.04434254,0.20340239,-27.06000000,13.04000000,-0.06000000
562,0,-0.22200000,-0.44200000,0.87000000,-0.03000000,0.16000000,-0.06000000,0.18033264,0.04451116,0.20333916,-27.06000000,13.04000000,-0.06000000
563,0,-0.22200000,-0.44200000,0.86900000,0.08000000,0.16000000,0.08000000,0.18041303,0.04467193,0.20341954,-27.07000000,13.04000000,-0.06000000
564,0,-0.22200000,-0.44200000,0.86700000,0.13000000,0.14000000,0.04000000,0.18054294,0.04481184,0.20345951,-27.07000000,13.04000000,-0.06000000
565,0,-0.23000000,-0.44700000,0.86800000,0.18000000,0.03000000,0.19000000,0.18072505,0.04484219,0.20365174,-27.07000000,13.04000000,-0.06000000
566,0,-0.23300000,-0.44200000,0.87000000,0.13000000,0.05000000,0.07000000,0.18085536,0.04489231,0.20372191,-27.07000000,13.04000000,-0.06000000
567,0,-0.22600000,-0.43900000,0.86700000,0.02000000,-0.10000000,-0.05000000,0.18196512,0.03934349,0.20094750,-27.07000000,13.04000000,-0.06000000
568,0,-0.22400000,-0.44600000,0.86800000,0.13000000,0.10000000,-0.24000000,0.18210260,0.03944924,0.20069370,-27.07000000,13.04000000,-0.06000000
569,0,-0.22300000,-0.44300000,0.87000000,0.08000000,0.19000000,-0.09000000,0.18218332,0.03964096,0.20060288,-27.07000000,13.04000000,-0.06000000
570,0,-0.22800000,-0.44500000,0.87000000,0.04000000,-0.02000000,0.20000000,0.18222342,0.03962091,0.20080336,-27.07000000,13.04000000,-0.06000000
571,0,-0.22600000,-0.44000000,0.86700000,0.07000000,0.00000000,0.10000000,0.18229434,0.03962091,0.20090468,-27.07000000,13.04000000,-0.06000000
572,0,-0.22600000,-0.44600000,0.87000000,-0.00000000,-0.01000000,0.04000000,0.18229434,0.03961085,0.20094495,-27.06000000,13.04000000,-0.06000000
573,0,-0.22200000,-0.44400000,0.86800000,-0.00000000,-0.11000000,0.20000000,0.18229434,0.03350691,0.21204302,-27.07000000,13.04000000,-0.06000000
574,0,-0.22400000,-0.44000000,0.87000000,-0.22000000,-0.02000000,-0.05000000,0.18205099,0.03348479,0.21198771,-27.07000000,13.04000000,-0.06000000
575,0,-0.22100000,-0.44900000,0.86900000,-0.01000000,0.20000000,0.14000000,0.18204085,0.03368765,0.21212972,-27.07000000,13.04000000,-0.06000000
576,0,-0.22500000,-0.44500000,0.86500000,0.02000000,0.09000000,0.14000000,0.18206090,0.03377789,0.21227009,-27.07000000,13.04000000,-0.06000000
577,0,-0.22500000,-0.44500000,0.86500000,0.06000000,-0.04000000,0.12000000,0.18212135,0.03373759,0.21239098,-27.06000000,13.04000000,-0.06000000
578,0,-0.23100000,-0.44500000,0.86800000,0.10000000,0.01000000,0.17000000,0.18222190,0.03374765,0.21256192,-27.06000000,13.04000000,-0.06000000
579,0,-0.22300000,-0.44700000,0.87200000,-0.08000000,-0.15000000,0.03000000,0.17771181,0.02529124,0.21425320,-27.06000000,13.04000000,-0.06000000
580,0,-0.23000000,-0.44000000,0.86300000,-0.19000000,0.09000000,-0.08000000,0.17751266,0.02538557,0.21416934,-27.06000000,13.04000000,-0.06000000
581,0,-0.22200000,-0.44200000,0.86900000,-0.17000000,0.23000000,-0.01000000,0.17734192,0.02561657,0.21415930,-27.07000000,13.04000000,-0.06000000
582,0,-0.22800000,-0.44000000,0.86700000,-0.14000000,-0.17000000,-0.08000000,0.17720289,0.02544774,0.21407985,-27.07000000,13.04000000,-0.06000000
583,0,-0.22100000,-0.44600000,0.86400000,-0.30000000,0.14000000,0.10000000,0.17690045,0.02558888,0.21418067,-27.07000000,13.04000000,-0.06000000
584,0,-0.22400000,-0.44600000,0.86900000,0.01000000,-0.05000000,-0.14000000,0.17691043,0.02553895,0.21404086,-27.07000000,13.04000000,-0.06000000
585,0,-0.22500000,-0.44200000,0.87000000,0.08000000,-0.20000000,0.43000000,0.18135227,0.01443434,0.23791576,-27.07000000,13.04000000,-0.06000000
586,0,-0.22200000,-0.44500000,0.86600000,0.01000000,-0.03000000,-0.16000000,0.18136287,0.01440255,0.23774622,-27.07000000,13.04000000,-0.06000000
587,0,-0.22900000,-0.44600000,0.87000000,-0.11000000,-0.06000000,-0.25000000,0.18125221,0.01434219,0.23749472,-27.07000000,13.04000000,-0.06000000
588,0,-0.22400000,-0.44000000,0.86600000,-0.17000000,0.06000000,-0.12000000,0.18108160,0.01440241,0.23737429,-27.07000000,13.04000000,-0.06000000
589,0,-0.22500000,-0.43900000,0.86400000,-0.20000000,0.26000000,0.14000000,0.18087806,0.01466701,0.23751676,-27.07000000,13.04000000,-0.06000000
590,0,-0.22900000,-0.44300000,0.86500000,-0.20000000,-0.01000000,-0.02000000,0.18067696,0.01465695,0.23749665,-27.07000000,13.04000000,-0.06000000
591,0,-0.22300000,-0.44300000,0.86700000,-0.02000000,0.00000000,0.10000000,0.17956664,0.01465695,0.24304824,-27.07000000,13.04000000,-0.06000000
592,0,-0.22900000,-0.44600000,0.86700000,0.04000000,0.07000000,0.20000000,0.17960886,0.01473083,0.24325931,-27.07000000,13.04000000,-0.06000000
593,0,-0.22600000,-0.45000000,0.86400000,-0.04000000,0.03000000,-0.15000000,0.17956865,0.01476098,0.24310855,-27.07000000,13.04000000,-0.06000000
594,0,-0.22600000,-0.44000000,0.87100000,0.13000000,0.22000000,0.19000000,0.17969928,0.01498203,0.24329946,-27.07000000,13.04000000,-0.06000000
595,0,-0.22400000,-0.44500000,0.86300000,0.07000000,0.02000000,0.09000000,0.17977032,0.01500233,0.24339080,-27.07000000,13.04000000,-0.06000000
596,0,-0.22700000,-0.44500000,0.86500000,0.07000000,-0.32000000,-0.05000000,0.17984053,0.01468133,0.24334064,-27.07000000,13.04000000,-0.06000000
597,0,-0.22700000,-0.44700000,0.86600000,-0.01000000,0.04000000,0.08000000,0.17927422,0.01694660,0.24787119,-27.07000000,13.04000000,-0.06000000
598,0,-0.22800000,-0.44400000,0.86700000,-0.05000000,0.13000000,-0.17000000,0.17921403,0.01710308,0.24766658,-27.08000000,13.05000000,-0.06000000
599,0,-0.22100000,-0.44400000,0.86700000,-0.08000000,-0.27000000,-0.23000000,0.17912390,0.01679889,0.24740745,-27.07000000,13.04000000,-0.06000000
600,0,-0.22700000,-0.44500000,0.86600000,0.15000000,-0.07000000,-0.01000000,0.17929007,0.01672134,0.24739637,-27.07000000,13.04000000,-0.06000000
601,0,-0.22600000,-0.44200000,0.86800000,0.01000000,0.21000000,0.02000000,0.17930366,0.01700670,0.24742355,-27.07000000,13.04000000,-0.06000000
602,0,-0.22300000,-0.44200000,0.86300000,-0.22000000,0.21000000,0.16000000,0.17906220,0.01723718,0.24759916,-27.07000000,13.04000000,-0.06000000
603,0,-0.22300000,-0.44000000,0.86600000,-0.05000000,-0.05000000,0.07000000,0.17633871,0.01451369,0.25141205,-27.07000000,13.04000000,-0.06000000
604,0,-0.22300000,-0.44200000,0.86900000,0.09000000,0.05000000,-0.17000000,0.17643723,0.01456842,0.25122596,-27.07000000,13.04000000,-0.06000000
605,0,-0.22400000,-0.44000000,0.86900000,0.29000000,0.00000000,0.03000000,0.17674708,0.01456842,0.25125801,-27.07000000,13.04000000,-0.06000000
606,0,-0.22300000,-0.44700000,0.86500000,-0.11000000,0.16000000,0.26000000,0.17662950,0.01473945,0.25153593,-27.07000000,13.04000000,-0.06000000
607,0,-0.22400000,-0.44800000,0.86500000,0.10000000,0.09000000,0.20000000,0.17673803,0.01483713,0.25175301,-27.07000000,13.05000000,-0.06000000
608,0,-0.22800000,-0.44000000,0.86800000,0.02000000,0.04000000,-0.05000000,0.17675942,0.01487990,0.25169955,-27.07000000,13.05000000,-0.06000000
609,0,-0.22500000,-0.44100000,0.86600000,-0.09000000,-0.08000000,-0.13000000,0.17179348,0.01046574,0.24452653,-27.07000000,13.05000000,-0.06000000
610,0,-0.21800000,-0.44200000,0.86400000,0.24000000,0.21000000,-0.20000000,0.17205695,0.01069627,0.24430697,-27.07000000,13.05000000,-0.07000000
611,0,-0.21800000,-0.44200000,0.86300000,-0.18000000,0.05000000,0.08000000,0.17186252,0.01075028,0.24439338,-27.07000000,13.05000000,-0.07000000
612,0,-0.22500000,-0.44100000,0.86800000,-0.11000000,0.13000000,0.04000000,0.17174494,0.01088924,0.24443614,-27.07000000,13.05000000,-0.07000000
613,0,-0.22800000,-0.44500000,0.86600000,0.05000000,0.24000000,0.24000000,0.17180343,0.01116999,0.24471689,-27.07000000,13.05000000,-0.07000000
614,0,-0.22400000,-0.44700000,0.86700000,0.04000000,-0.02000000,0.18000000,0.17184648,0.01114846,0.24491063,-27.07000000,13.05000000,-0.07000000
615,0,-0.22600000,-0.44700000,0.86600000,0.21000000,-0.18000000,0.17000000,0.18361962,0.00105720,0.25444126,-27.07000000,13.05000000,-0.07000000
616,0,-0.22400000,-0.44600000,0.86500000,-0.27000000,0.20000000,0.07000000,0.18330925,0.00128710,0.25452173,-27.07000000,13.05000000,-0.07000000
617,0,-0.22200000,-0.44500000,0.86800000,0.22000000,-0.06000000,0.11000000,0.18354394,0.00122309,0.25463908,-27.07000000,13.05000000,-0.07000000
618,0,-0.22900000,-0.44200000,0.86600000,0.10000000,-0.08000000,0.12000000,0.18365017,0.00113811,0.25476655,-27.07000000,13.05000000,-0.06000000
619,0,-0.22700000,-0.44100000,0.86800000,-0.05000000,0.06000000,-0.28000000,0.18359571,0.00120347,0.25446157,-27.07000000,13.05000000,-0.06000000
620,0,-0.22300000,-0.44000000,0.87000000,0.23000000,0.13000000,0.13000000,0.18384546,0.00134463,0.25460273,-27.07000000,13.05000000,-0.06000000
621,0,-0.22700000,-0.44000000,0.86800000,-0.31000000,-0.13000000,0.18000000,0.16675261,-0.00582334,0.26452761,-27.07000000,13.05000000,-0.06000000
622,0,-0.22300000,-0.44100000,0.86500000,-0.01000000,0.00000000,-0.10000000,0.16674162,-0.00582334,0.26441767,-27.07000000,13.05000000,-0.06000000
623,0,-0.22600000,-0.44400000,0.86600000,-0.18000000,-0.04000000,0.06000000,0.16655723,-0.00586431,0.26447913,-27.07000000,13.05000000,-0.06000000
624,0,-0.22100000,-0.44600000,0.86800000,-0.19000000,0.11000000,-0.23000000,0.16636546,-0.00575329,0.26424698,-27.07000000,13.05000000,-0.06000000
625,0,-0.22700000,-0.44500000,0.86800000,-0.21000000,-0.01000000,0.12000000,0.16615526,-0.00576330,0.26436710,-27.07000000,13.05000000,-0.07000000
626,0,-0.22700000,-0.44300000,0.86400000,-0.18000000,-0.21000000,-0.01000000,0.16597474,-0.00597390,0.26435707,-27.08000000,13.05000000,-0.07000000
627,0,-0.22800000,-0.44800000,0.86800000,-0.21000000,0.09000000,-0.17000000,0.15432677,-0.00098192,0.25492776,-27.08000000,13.04000000,-0.07000000
628,0,-0.22200000,-0.44700000,0.86500000,-0.06000000,-0.07000000,-0.14000000,0.15426330,-0.00105596,0.25477968,-27.08000000,13.04000000,-0.07000000
629,0,-0.22800000,-0.44300000,0.86900000,0.05000000,-0.10000000,-0.06000000,0.15431466,-0.00115868,0.25471805,-27.08000000,13.04000000,-0.07000000
630,0,-0.22100000,-0.44000000,0.86700000,0.21000000,0.20000000,-0.18000000,0.15452647,-0.00095696,0.25453650,-27.08000000,13.04000000,-0.07000000
631,0,-0.23100000,-0.44100000,0.86900000,0.12000000,-0.23000000,-0.17000000,0.15464731,-0.00118855,0.25436532,-27.08000000,13.04000000,-0.07000000
632,0,-0.22900000,-0.44200000,0.87400000,-0.04000000,-0.12000000,0.25000000,0.15460713,-0.00130907,0.25461640,-27.08000000,13.04000000,-0.07000000
633,0,-0.22600000,-0.45200000,0.86600000,-0.19000000,0.21000000,0.02000000,0.14389504,0.01053060,0.25574399,-27.08000000,13.04000000,-0.07000000
634,0,-0.22200000,-0.44300000,0.86800000,0.11000000,-0.14000000,-0.13000000,0.14401268,0.01038089,0.25560496,-27.08000000,13.04000000,-0.07000000
635,0,-0.22600000,-0.44100000,0.86900000,-0.01000000,0.18000000,0.14000000,0.14400256,0.01056308,0.25574667,-27.08000000,13.04000000,-0.07000000
636,0,-0.22600000,-0.44100000,0.86400000,0.08000000,-0.16000000,-0.10000000,0.14408265,0.01040289,0.25564655,-27.08000000,13.04000000,-0.07000000
637,0,-0.22700000,-0.44600000,0.86700000,0.08000000,0.13000000,0.05000000,0.14416357,0.01053438,0.25569712,-27.08000000,13.04000000,-0.07000000
638,0,-0.22600000,-0.44100000,0.86900000,-0.14000000,0.10000000,-0.27000000,0.14402230,0.01063529,0.25542467,-27.08000000,13.04000000,-0.08000000
639,0,-0.22300000,-0.44300000,0.86500000,-0.11000000,-0.07000000,0.04000000,0.13792392,0.00675450,0.25764226,-27.08000000,13.04000000,-0.08000000
640,0,-0.22300000,-0.44300000,0.87000000,0.05000000,-0.17000000,0.12000000,0.13797782,0.00657124,0.25777162,-27.08000000,13.04000000,-0.07000000
641,0,-0.22700000,-0.44100000,0.87000000,-0.01000000,-0.12000000,-0.23000000,0.13796773,0.00645018,0.25753958,-27.08000000,13.04000000,-0.08000000
642,0,-0.23100000,-0.44300000,0.86800000,0.05000000,0.07000000,0.03000000,0.13801784,0.00652033,0.25756965,-27.08000000,13.04000000,-0.08000000
643,0,-0.22700000,-0.44300000,0.86400000,-0.24000000,-0.08000000,-0.24000000,0.13777783,0.00644033,0.25732964,-27.08000000,13.04000000,-0.08000000
644,0,-0.22300000,-0.44900000,0.86800000,0.11000000,-0.09000000,0.12000000,0.13788930,0.00634912,0.25745125,-27.08000000,13.04000000,-0.08000000
645,0,-0.22500000,-0.44300000,0.86700000,0.28000000,0.00000000,0.02000000,0.15347594,0.00634912,0.25856458,-27.08000000,13.04000000,-0.08000000
646,0,-0.23000000,-0.44500000,0.86800000,0.02000000,0.17000000,-0.02000000,0.15349712,0.00652914,0.25854340,-27.08000000,13.04000000,-0.08000000
647,0,-0.22500000,-0.44400000,0.86700000,0.25000000,-0.18000000,0.14000000,0.15375785,0.00634141,0.25868941,-27.08000000,13.04000000,-0.08000000
648,0,-0.22700000,-0.44400000,0.86900000,0.08000000,0.20000000,0.23000000,0.15384327,0.00655496,0.25893499,-27.08000000,13.03000000,-0.08000000
649,0,-0.22800000,-0.44700000,0.87000000,-0.08000000,-0.04000000,-0.21000000,0.15375762,0.00651213,0.25871017,-27.08000000,13.03000000,-0.08000000
650,0,-0.22100000,-0.44400000,0.86500000,0.18000000,-0.18000000,0.01000000,0.15395471,0.00631505,0.25872112,-27.08000000,13.03000000,-0.08000000
651,0,-0.22500000,-0.44300000,0.86600000,-0.02000000,-0.12000000,0.08000000,0.15283341,-0.00041277,0.26320633,-27.08000000,13.03000000,-0.08000000
652,0,-0.22400000,-0.44300000,0.86900000,0.04000000,0.17000000,-0.16000000,0.15287743,-0.00022566,0.26303023,-27.08000000,13.03000000,-0.08000000
653,0,-0.22400000,-0.44700000,0.87100000,-0.09000000,0.15000000,-0.03000000,0.15277955,-0.00006253,0.26299760,-27.08000000,13.04000000,-0.08000000
654,0,-0.22600000,-0.44300000,0.87100000,-0.06000000,-0.01000000,0.16000000,0.15271476,-0.00007333,0.26317039,-27.08000000,13.04000000,-0.08000000
655,0,-0.22600000,-0.44400000,0.86800000,0.01000000,-0.02000000,-0.01000000,0.15272567,-0.00009516,0.26315947,-27.08000000,13.04000000,-0.08000000
656,0,-0.22300000,-0.44200000,0.86800000,0.10000000,-0.07000000,0.07000000,0.15283245,-0.00016990,0.26323422,-27.08000000,13.04000000,-0.08000000
657,0,-0.22600000,-0.44300000,0.87000000,0.05000000,0.07000000,-0.26000000,0.15558757,0.00368727,0.24890758,-27.08000000,13.04000000,-0.08000000
658,0,-0.22300000,-0.44700000,0.86700000,-0.07000000,-0.10000000,-0.07000000,0.15549485,0.00355482,0.24881486,-27.08000000,13.04000000,-0.08000000
659,0,-0.22900000,-0.44400000,0.86900000,0.09000000,-0.09000000,0.24000000,0.15561459,0.00343508,0.24913418,-27.08000000,13.04000000,-0.08000000
660,0,-0.22400000,-0.44100000,0.86800000,-0.12000000,-0.06000000,0.15000000,0.15546721,0.00336139,0.24931841,-27.08000000,13.04000000,-0.08000000
661,0,-0.22600000,-0.44400000,0.87000000,-0.25000000,0.13000000,-0.02000000,0.15515915,0.00352158,0.24929376,-27.08000000,13.04000000,-0.08000000
662,0,-0.22500000,-0.44300000,0.86600000,0.17000000,0.20000000,-0.04000000,0.15540600,0.00381199,0.24923568,-27.08000000,13.04000000,-0.08000000
663,0,-0.22200000,-0.44900000,0.86900000,0.16000000,0.17000000,-0.33000000,0.16407347,0.01302118,0.23135903,-27.08000000,13.04000000,-0.08000000
664,0,-0.22300000,-0.44300000,0.86900000,-0.05000000,0.31000000,0.09000000,0.16401858,0.01336149,0.23145783,-27.08000000,13.04000000,-0.08000000
665,0,-0.22800000,-0.44600000,0.86600000,-0.12000000,0.30000000,0.01000000,0.16389177,0.01367852,0.23146840,-27.08000000,13.04000000,-0.08000000
666,0,-0.22900000,-0.44400000,0.87000000,0.01000000,-0.04000000,-0.10000000,0.16390239,0.01363603,0.23136217,-27.08000000,13.04000000,-0.08000000
667,0,-0.23300000,-0.44300000,0.87300000,-0.11000000,-0.09000000,0.02000000,0.16378273,0.01353813,0.23138393,-27.08000000,13.04000000,-0.08000000
668,0,-0.22400000,-0.44400000,0.86500000,0.25000000,0.02000000,-0.49000000,0.16405986,0.01356030,0.23084076,-27.08000000,13.04000000,-0.08000000
669,0,-0.22400000,-0.44400000,0.87000000,-0.11000000,-0.11000000,-0.02000000,0.15790423,0.00740467,0.22972155,-27.08000000,13.04000000,-0.08000000
670,0,-0.21900000,-0.44400000,0.86900000,0.14000000,-0.30000000,-0.10000000,0.15805795,0.00707527,0.22961175,-27.08000000,13.04000000,-0.08000000
671,0,-0.22700000,-0.44400000,0.86800000,0.01000000,0.13000000,0.02000000,0.15806813,0.00720756,0.22963210,-27.08000000,13.03000000,-0.08000000
672,0,-0.22400000,-0.44300000,0.86600000,0.09000000,-0.13000000,0.15000000,0.15815903,0.00707626,0.22978361,-27.08000000,13.03000000,-0.08000000
673,0,-0.22700000,-0.44600000,0.86800000,-0.01000000,-0.04000000,0.02000000,0.15814901,0.00703615,0.22980366,-27.08000000,13.03000000,-0.08000000
674,0,-0.22300000,-0.43900000,0.86600000,0.08000000,0.02000000,0.13000000,0.15822922,0.00705620,0.22993401,-27.08000000,13.03000000,-0.08000000
675,0,-0.22700000,-0.44100000,0.86500000,0.04000000,0.19000000,0.17000000,0.16056595,0.01815565,0.23986509,-27.08000000,13.03000000,-0.08000000
676,0,-0.22300000,-0.44100000,0.87100000,0.06000000,0.08000000,0.06000000,0.16063011,0.01824120,0.23992926,-27.08000000,13.03000000,-0.08000000
677,0,-0.22300000,-0.44000000,0.86700000,0.02000000,0.04000000,-0.14000000,0.16065005,0.01828109,0.23978965,-27.08000000,13.03000000,-0.08000000
678,0,-0.22600000,-0.44500000,0.86400000,0.10000000,0.13000000,-0.22000000,0.16074884,0.01840951,0.23957232,-27.08000000,13.03000000,-0.08000000
679,0,-0.22300000,-0.44100000,0.86500000,0.12000000,-0.09000000,-0.02000000,0.16086873,0.01831960,0.23955234,-27.08000000,13.03000000,-0.08000000
680,0,-0.22600000,-0.44300000,0.86500000,0.22000000,-0.11000000,0.04000000,0.16108711,0.01821041,0.23959205,-27.08000000,13.03000000,-0.08000000
681,0,-0.22600000,-0.44600000,0.86800000,0.10000000,-0.03000000,-0.01000000,0.16119365,0.01817845,0.23958139,-27.08000000,13.03000000,-0.08000000
682,0,-0.22200000,-0.44300000,0.86500000,0.01000000,0.07000000,-0.17000000,0.16174862,0.02206327,0.23014681,-27.08000000,13.03000000,-0.08000000
683,0,-0.22600000,-0.44400000,0.86500000,-0.05000000,0.25000000,-0.08000000,0.16169615,0.02232562,0.23006286,-27.08000000,13.03000000,-0.08000000
684,0,-0.22700000,-0.44500000,0.86900000,-0.05000000,0.01000000,0.32000000,0.16164570,0.02233571,0.23038577,-27.08000000,13.03000000,-0.08000000
685,0,-0.22400000,-0.44300000,0.87000000,-0.11000000,0.04000000,0.12000000,0.16153304,0.02237667,0.23050867,-27.08000000,13.03000000,-0.08000000
686,0,-0.22900000,-0.44600000,0.86800000,0.33000000,0.02000000,0.03000000,0.16186172,0.02239659,0.23053855,-27.08000000,13.03000000,-0.08000000
687,0,-0.22700000,-0.44700000,0.86600000,-0.06000000,0.10000000,0.13000000,0.16179312,0.02251092,0.23068718,-27.08000000,13.03000000,-0.08000000
688,0,-0.22400000,-0.44500000,0.86600000,-0.17000000,0.04000000,-0.10000000,0.15221717,0.02476409,0.22505427,-27.08000000,13.03000000,-0.08000000
689,0,-0.22600000,-0.44500000,0.86700000,0.01000000,0.14000000,-0.06000000,0.15222808,0.02491681,0.22498881,-27.08000000,13.03000000,-0.08000000
690,0,-0.22700000,-0.44500000,0.86900000,-0.13000000,0.10000000,-0.07000000,0.15208673,0.02502554,0.22491270,-27.08000000,13.03000000,-0.08000000
691,0,-0.22600000,-0.44400000,0.87100000,0.21000000,-0.12000000,-0.09000000,0.15231226,0.02489667,0.22481605,-27.08000000,13.03000000,-0.08000000
692,0,-0.22600000,-0.44400000,0.86500000,0.07000000,0.22000000,0.08000000,0.15238823,0.02513545,0.22490288,-27.08000000,13.03000000,-0.08000000
693,0,-0.22400000,-0.44300000,0.86200000,0.05000000,0.20000000,0.20000000,0.15244324,0.02535548,0.22512291,-27.08000000,13.03000000,-0.08000000
694,0,-0.22600000,-0.44300000,0.86900000,-0.00000000,0.00000000,0.02000000,0.15244324,0.02535548,0.22622447,-27.08000000,13.04000000,-0.08000000
695,0,-0.22700000,-0.44300000,0.87100000,0.05000000,-0.00000000,0.10000000,0.15249796,0.02535548,0.22633391,-27.08000000,13.04000000,-0.08000000
696,0,-0.23000000,-0.44600000,0.87100000,0.19000000,-0.02000000,0.24000000,0.15270364,0.02533383,0.22659372,-27.08000000,13.04000000,-0.08000000
697,0,-0.22900000,-0.44200000,0.86700000,0.16000000,0.22000000,-0.07000000,0.15287719,0.02557246,0.22651779,-27.08000000,13.04000000,-0.08000000
698,0,-0.22600000,-0.44300000,0.86700000,-0.11000000,-0.17000000,0.02000000,0.15275929,0.02539026,0.22653923,-27.08000000,13.04000000,-0.08000000
699,0,-0.22600000,-0.44900000,0.86600000,0.13000000,0.23000000,0.16000000,0.15290913,0.02565536,0.22672365,-27.08000000,13.04000000,-0.08000000
700,0,-0.22500000,-0.44000000,0.86400000,0.29000000,0.07000000,0.24000000,0.16893109,0.02952273,0.23998320,-27.08000000,13.04000000,-0.08000000
701,0,-0.22100000,-0.44200000,0.86300000,0.18000000,-0.25000000,-0.15000000,0.16912208,0.02925746,0.23982404,-27.08000000,13.04000000,-0.08000000
702,0,-0.22500000,-0.44300000,0.86400000,-0.03000000,0.29000000,-0.03000000,0.16909124,0.02955556,0.23979320,-27.08000000,13.04000000,-0.08000000
703,0,-0.22900000,-0.44400000,0.87000000,0.07000000,0.06000000,0.11000000,0.16916173,0.02961597,0.23990396,-27.08000000,13.04000000,-0.08000000
704,0,-0.22200000,-0.44300000,0.86700000,0.02000000,-0.10000000,-0.08000000,0.16918178,0.02951573,0.23982377,-27.08000000,13.04000000,-0.09000000
705,0,-0.22900000,-0.44400000,0.87000000,0.14000000,-0.06000000,-0.00000000,0.16932268,0.02945535,0.23982377,-27.08000000,13.04000000,-0.08000000
706,0,-0.22700000,-0.44600000,0.86600000,0.09000000,0.17000000,0.09000000,0.17439177,0.03903028,0.24489286,-27.08000000,13.04000000,-0.09000000
707,0,-0.22200000,-0.43900000,0.86600000,0.01000000,-0.18000000,-0.27000000,0.17440284,0.03883096,0.24459388,-27.08000000,13.04000000,-0.08000000
708,0,-0.22700000,-0.44800000,0.86200000,0.34000000,0.14000000,0.02000000,0.17474828,0.03897320,0.24461420,-27.08000000,13.04000000,-0.08000000
709,0,-0.23100000,-0.44200000,0.87000000,0.03000000,0.03000000,0.07000000,0.17477828,0.03900321,0.24468420,-27.07000000,13.04000000,-0.09000000
710,0,-0.22100000,-0.44600000,0.86100000,0.02000000,0.03000000,-0.15000000,0.17479823,0.03903313,0.24453459,-27.07000000,13.04000000,-0.09000000
711,0,-0.22500000,-0.44400000,0.86500000,-0.03000000,-0.13000000,0.02000000,0.17476784,0.03890145,0.24455485,-27.07000000,13.04000000,-0.09000000
712,0,-0.22300000,-0.44500000,0.86900000,0.01000000,0.21000000,-0.32000000,0.17532165,0.05053129,0.22683318,-27.07000000,13.04000000,-0.09000000
713,0,-0.22600000,-0.44500000,0.86300000,-0.17000000,0.09000000,0.21000000,0.17514082,0.05062703,0.22705656,-27.07000000,13.04000000,-0.08000000
714,0,-0.22600000,-0.44200000,0.86800000,-0.36000000,-0.11000000,0.18000000,0.17477935,0.05051658,0.22723729,-27.07000000,13.04000000,-0.08000000
715,0,-0.22600000,-0.44500000,0.86700000,-0.05000000,-0.09000000,0.08000000,0.17472907,0.05042608,0.22731773,-27.08000000,13.04000000,-0.08000000
716,0,-0.22400000,-0.44200000,0.86700000,0.10000000,-0.13000000,0.18000000,0.17482889,0.05029632,0.22749739,-27.08000000,13.04000000,-0.08000000
717,0,-0.22400000,-0.44400000,0.86600000,-0.08000000,0.12000000,-0.07000000,0.17474904,0.05041610,0.22742753,-27.08000000,13.04000000,-0.08000000
718,0,-0.22300000,-0.44400000,0.86400000,-0.02000000,-0.19000000,0.12000000,0.17363673,0.03984924,0.23410133,-27.08000000,13.04000000,-0.09000000
719,0,-0.22500000,-0.44200000,0.86900000,-0.20000000,-0.17000000,-0.01000000,0.17342404,0.03966845,0.23409070,-27.08000000,13.04000000,-0.09000000
720,0,-0.22900000,-0.44200000,0.86900000,0.16000000,-0.38000000,-0.05000000,0.17358516,0.03928581,0.23404035,-27.08000000,13.04000000,-0.09000000
721,0,-0.22600000,-0.44500000,0.87000000,0.01000000,-0.09000000,-0.19000000,0.17359518,0.03919564,0.23384998,-27.08000000,13.04000000,-0.09000000
722,0,-0.22700000,-0.44000000,0.86700000,-0.03000000,-0.01000000,-0.05000000,0.17356510,0.03918561,0.23379985,-27.08000000,13.04000000,-0.09000000
723,0,-0.22500000,-0.44600000,0.86300000,0.03000000,0.17000000,0.09000000,0.17359544,0.03935756,0.23389088,-27.08000000,13.04000000,-0.09000000
724,0,-0.22400000,-0.44400000,0.86700000,-0.17000000,0.10000000,-0.10000000,0.16361758,0.04522689,0.22802155,-27.08000000,13.04000000,-0.09000000
725,0,-0.22900000,-0.44800000,0.86800000,0.14000000,-0.15000000,0.14000000,0.16379073,0.04504137,0.22819470,-27.08000000,13.04000000,-0.09000000
726,0,-0.22200000,-0.44800000,0.86700000,-0.16000000,0.08000000,-0.18000000,0.16290243,0.04548553,0.22719536,-27.08000000,13.04000000,-0.09000000
727,0,-0.22100000,-0.43900000,0.87100000,-0.04000000,0.04000000,-0.21000000,0.16285841,0.04552954,0.22696427,-27.08000000,13.04000000,-0.09000000
728,0,-0.21800000,-0.44800000,0.86600000,-0.06000000,-0.00000000,-0.15000000,0.16278189,0.04552954,0.22677296,-27.08000000,13.04000000,-0.09000000
729,0,-0.22500000,-0.44800000,0.86500000,0.23000000,0.01000000,-0.04000000,0.16306097,0.04554168,0.22672443,-27.08000000,13.04000000,-0.09000000
730,0,-0.22200000,-0.44700000,0.86800000,0.16000000,-0.19000000,0.04000000,0.17101261,0.03609911,0.22871234,-27.08000000,13.04000000,-0.09000000
731,0,-0.22600000,-0.44800000,0.86500000,-0.05000000,-0.06000000,0.08000000,0.17068073,0.03570085,0.22924335,-27.08000000,13.04000000,-0.09000000
732,0,-0.22500000,-0.44500000,0.87000000,-0.12000000,0.06000000,0.14000000,0.17029190,0.03589526,0.22969698,-27.08000000,13.04000000,-0.09000000
733,0,-0.22500000,-0.44300000,0.87100000,0.02000000,0.17000000,0.12000000,0.17043321,0.03709638,0.23054483,-27.08000000,13.04000000,-0.09000000
734,0,-0.22800000,-0.44300000,0.86800000,-0.06000000,-0.06000000,0.02000000,0.16997170,0.03663487,0.23069866,-27.08000000,13.04000000,-0.09000000
735,0,-0.22500000,-0.45000000,0.86800000,0.02000000,-0.11000000,-0.16000000,0.17006132,0.03614200,0.22998175,-27.08000000,13.03000000,-0.09000000
736,0,-0.22300000,-0.44300000,0.86800000,0.05000000,0.09000000,0.01000000,0.17156259,0.03884428,0.23028200,-27.08000000,13.03000000,-0.09000000
737,0,-0.22600000,-0.44200000,0.86600000,-0.09000000,0.03000000,0.24000000,0.17144027,0.03888505,0.23060818,-27.08000000,13.03000000,-0.09000000
738,0,-0.22900000,-0.44600000,0.86900000,-0.11000000,0.14000000,0.03000000,0.17132379,0.03903330,0.23063995,-27.08000000,13.03000000,-0.09000000
739,0,-0.22500000,-0.44400000,0.87100000,-0.08000000,-0.12000000,-0.04000000,0.17124300,0.03891212,0.23059956,-27.08000000,13.03000000,-0.09000000
740,0,-0.22300000,-0.44500000,0.86800000,0.02000000,-0.12000000,-0.00000000,0.17126317,0.03879109,0.23059956,-27.08000000,13.03000000,-0.09000000
741,0,-0.22700000,-0.44200000,0.86600000,0.07000000,0.08000000,-0.13000000,0.17138428,0.03892949,0.23037465,-27.08000000,13.03000000,-0.09000000
742,0,-0.21700000,-0.44400000,0.86100000,-0.05000000,-0.06000000,0.11000000,0.16863474,0.03563004,0.23642365,-27.08000000,13.03000000,-0.09000000
743,0,-0.23100000,-0.44400000,0.86600000,0.25000000,0.18000000,-0.25000000,0.16890882,0.03582739,0.23614956,-27.08000000,13.03000000,-0.09000000
744,0,-0.22500000,-0.43900000,0.86900000,-0.03000000,0.07000000,0.17000000,0.16887845,0.03589826,0.23632167,-27.08000000,13.03000000,-0.09000000
745,0,-0.22500000,-0.44000000,0.87100000,0.12000000,0.11000000,-0.03000000,0.16900086,0.03601046,0.23629107,-27.08000000,13.03000000,-0.09000000
746,0,-0.22800000,-0.44600000,0.86200000,0.05000000,0.04000000,-0.13000000,0.16905936,0.03605726,0.23613897,-27.08000000,13.03000000,-0.09000000
747,0,-0.22500000,-0.44700000,0.87200000,0.17000000,-0.04000000,0.11000000,0.16926438,0.03600902,0.23627163,-27.08000000,13.03000000,-0.09000000
748,0,-0.22400000,-0.44500000,0.86600000,0.11000000,-0.37000000,-0.04000000,0.17531503,0.01565684,0.23407139,-27.08000000,13.03000000,-0.09000000
749,0,-0.22700000,-0.44600000,0.86500000,-0.05000000,0.14000000,-0.05000000,0.17526002,0.01581087,0.23401639,-27.08000000,13.03000000,-0.09000000
750,0,-0.22500000,-0.44100000,0.87100000,-0.18000000,-0.06000000,-0.01000000,0.17505375,0.01574211,0.23400493,-27.08000000,13.03000000,-0.09000000
751,0,-0.22200000,-0.44400000,0.86800000,0.03000000,0.02000000,0.13000000,0.17508624,0.01576376,0.23414569,-27.08000000,13.03000000,-0.09000000
752,0,-0.22800000,-0.44800000,0.86800000,-0.12000000,-0.09000000,0.10000000,0.17495115,0.01566245,0.23425825,-27.08000000,13.03000000,-0.09000000
753,0,-0.22400000,-0.45000000,0.86800000,0.19000000,-0.19000000,-0.10000000,0.17515733,0.01545628,0.23414974,-27.08000000,13.03000000,-0.09000000
754,0,-0.22900000,-0.44200000,0.87000000,0.04000000,0.03000000,0.24000000,0.17737290,0.01711795,0.24744316,-27.08000000,13.03000000,-0.09000000
755,0,-0.22800000,-0.44000000,0.86900000,-0.34000000,0.09000000,-0.10000000,0.17701717,0.01721212,0.24733853,-27.08000000,13.03000000,-0.09000000
756,0,-0.23300000,-0.44000000,0.86900000,0.04000000,-0.11000000,0.08000000,0.17705712,0.01710225,0.24741844,-27.08000000,13.03000000,-0.09000000
757,0,-0.22300000,-0.44400000,0.86800000,-0.10000000,0.15000000,-0.07000000,0.17694489,0.01727060,0.24733988,-27.08000000,13.03000000,-0.09000000
758,0,-0.22500000,-0.43700000,0.86600000,0.12000000,-0.01000000,0.06000000,0.17707465,0.01725978,0.24740476,-27.08000000,13.03000000,-0.09000000
759,0,-0.22200000,-0.44100000,0.86700000,0.01000000,0.04000000,0.20000000,0.17708542,0.01730287,0.24762017,-27.08000000,13.03000000,-0.09000000
760,0,-0.22800000,-0.44400000,0.86800000,-0.16000000,-0.08000000,0.04000000,0.16814688,0.01283360,0.24985480,-27.08000000,13.03000000,-0.08000000
761,0,-0.23000000,-0.44400000,0.86900000,0.25000000,0.13000000,-0.09000000,0.16842252,0.01297693,0.24975557,-27.08000000,13.03000000,-0.09000000
762,0,-0.22600000,-0.44400000,0.87000000,0.12000000,0.01000000,0.24000000,0.16855116,0.01298765,0.25001286,-27.08000000,13.03000000,-0.09000000
763,0,-0.22400000,-0.44200000,0.86400000,-0.00000000,0.04000000,-0.03000000,0.16855116,0.01303094,0.24998039,-27.08000000,13.03000000,-0.08000000
764,0,-0.21800000,-0.44500000,0.86900000,-0.08000000,-0.01000000,0.08000000,0.16846440,0.01302010,0.25006714,-27.08000000,13.03000000,-0.08000000
765,0,-0.22100000,-0.44300000,0.86800000,-0.16000000,-0.05000000,-0.14000000,0.16829338,0.01296665,0.24991749,-27.08000000,13.03000000,-0.08000000
766,0,-0.22100000,-0.44400000,0.86200000,-0.03000000,-0.07000000,0.25000000,0.16663849,0.00910525,0.26370819,-27.08000000,13.03000000,-0.09000000
767,0,-0.22200000,-0.44400000,0.86700000,0.01000000,0.10000000,-0.20000000,0.16664889,0.00920924,0.26350022,-27.08000000,13.03000000,-0.09000000
768,0,-0.22300000,-0.44900000,0.86400000,0.18000000,-0.01000000,0.10000000,0.16682748,0.00919932,0.26359943,-27.08000000,13.03000000,-0.09000000
769,0,-0.22700000,-0.44500000,0.86800000,0.01000000,0.20000000,-0.02000000,0.16683756,0.00940090,0.26357928,-27.08000000,13.03000000,-0.09000000
770,0,-0.22600000,-0.44300000,0.86600000,0.22000000,0.19000000,-0.23000000,0.16707624,0.00960703,0.26332975,-27.08000000,13.03000000,-0.09000000
771,0,-0.22400000,-0.44600000,0.87200000,-0.02000000,-0.06000000,-0.08000000,0.16705462,0.00954216,0.26324326,-27.08000000,13.03000000,-0.09000000
772,0,-0.22800000,-0.44100000,0.86500000,-0.06000000,-0.02000000,-0.24000000,0.16367071,0.00841419,0.24970762,-27.08000000,13.03000000,-0.09000000
773,0,-0.22600000,-0.44600000,0.86600000,0.07000000,-0.14000000,0.08000000,0.16374945,0.00825670,0.24979762,-27.08000000,13.03000000,-0.09000000
774,0,-0.22500000,-0.44600000,0.86500000,0.30000000,0.03000000,-0.22000000,0.16405933,0.00828769,0.24957037,-27.08000000,13.03000000,-0.09000000
775,0,-0.22500000,-0.44700000,0.86700000,0.13000000,-0.10000000,0.02000000,0.16418974,0.00818737,0.24959044,-27.08000000,13.03000000,-0.09000000
776,0,-0.22600000,-0.44200000,0.86700000,-0.07000000,0.10000000,0.16000000,0.16412059,0.00828616,0.24974849,-27.08000000,13.03000000,-0.09000000
777,0,-0.22500000,-0.44300000,0.86400000,-0.14000000,0.08000000,0.10000000,0.16398209,0.00836531,0.24984742,-27.08000000,13.03000000,-0.09000000
778,0,-0.22600000,-0.44500000,0.86400000,-0.27000000,-0.11000000,-0.22000000,0.14903362,0.00227519,0.23766719,-27.08000000,13.03000000,-0.09000000
779,0,-0.22700000,-0.44000000,0.86700000,-0.20000000,-0.05000000,0.15000000,0.14882312,0.00222256,0.23782506,-27.09000000,13.03000000,-0.09000000
780,0,-0.22100000,-0.44100000,0.86600000,-0.24000000,0.16000000,0.03000000,0.14857831,0.00238577,0.23785566,-27.09000000,13.03000000,-0.09000000
781,0,-0.22200000,-0.44000000,0.86500000,0.04000000,-0.14000000,-0.13000000,0.14861846,0.00224523,0.23772516,-27.09000000,13.03000000,-0.09000000
782,0,-0.22200000,-0.44500000,0.86800000,-0.03000000,-0.25000000,-0.07000000,0.14858842,0.00199487,0.23765506,-27.09000000,13.03000000,-0.09000000
783,0,-0.22800000,-0.44000000,0.86500000,-0.20000000,0.04000000,-0.09000000,0.14838712,0.00203513,0.23756448,-27.09000000,13.02000000,-0.09000000
784,0,-0.22400000,-0.44600000,0.86800000,-0.06000000,-0.05000000,0.08000000,0.14505471,-0.00074188,0.24200769,-27.09000000,13.02000000,-0.09000000
785,0,-0.22700000,-0.44100000,0.86500000,-0.13000000,-0.05000000,0.13000000,0.14491662,-0.00079499,0.24214579,-27.09000000,13.03000000,-0.09000000
786,0,-0.22700000,-0.44000000,0.86500000,0.17000000,-0.00000000,-0.06000000,0.14508995,-0.00079499,0.24208461,-27.09000000,13.03000000,-0.09000000
787,0,-0.22600000,-0.44500000,0.86500000,0.13000000,-0.02000000,0.11000000,0.14522029,-0.00081505,0.24219490,-27.09000000,13.03000000,-0.09000000
788,0,-0.22500000,-0.44400000,0.86800000,-0.29000000,0.05000000,0.08000000,0.14491279,-0.00076203,0.24227973,-27.09000000,13.03000000,-0.09000000
789,0,-0.22800000,-0.44700000,0.86700000,-0.11000000,-0.11000000,-0.01000000,0.14480176,-0.00087306,0.24226964,-27.10000000,13.03000000,-0.09000000
790,0,-0.22600000,-0.44100000,0.86700000,-0.21000000,0.07000000,-0.09000000,0.13296834,0.00307142,0.23719817,-27.09000000,13.03000000,-0.09000000
791,0,-0.22500000,-0.44500000,0.86300000,0.17000000,-0.02000000,-0.05000000,0.13314897,0.00305017,0.23714505,-27.09000000,13.03000000,-0.09000000
792,0,-0.22700000,-0.44500000,0.86700000,-0.12000000,0.04000000,-0.15000000,0.13302828,0.00309040,0.23699419,-27.09000000,13.03000000,-0.09000000
793,0,-0.22600000,-0.44200000,0.86600000,0.04000000,-0.02000000,-0.02000000,0.13306860,0.00307023,0.23697402,-27.09000000,13.03000000,-0.09000000
794,0,-0.22400000,-0.44900000,0.86500000,-0.06000000,-0.21000000,-0.09000000,0.13300856,0.00286008,0.23688396,-27.09000000,13.02000000,-0.09000000
795,0,-0.22100000,-0.43900000,0.87100000,-0.00000000,-0.07000000,-0.00000000,0.13300856,0.00278953,0.23688396,-27.09000000,13.02000000,-0.09000000
796,0,-0.22600000,-0.44600000,0.86700000,-0.00000000,-0.11000000,-0.10000000,0.13300856,-0.00365496,0.23102533,-27.09000000,13.03000000,-0.09000000
797,0,-0.22400000,-0.44400000,0.86800000,-0.11000000,-0.10000000,-0.37000000,0.13288463,-0.00376762,0.23060848,-27.10000000,13.03000000,-0.09000000
798,0,-0.22000000,-0.44400000,0.86700000,0.25000000,0.08000000,-0.09000000,0.13314060,-0.00368571,0.23051633,-27.10000000,13.03000000,-0.09000000
799,0,-0.22600000,-0.44300000,0.86500000,0.08000000,0.09000000,0.08000000,0.13322243,-0.00359365,0.23059816,-27.10000000,13.02000000,-0.09000000
800,0,-0.22100000,-0.44000000,0.87000000,-0.14000000,0.01000000,0.04000000,0.13303593,-0.00358033,0.23065145,-27.10000000,13.03000000,-0.09000000
801,0,-0.22700000,-0.44300000,0.87000000,-0.00000000,-0.17000000,0.04000000,0.13303593,-0.00375670,0.23069295,-27.10000000,13.02000000,-0.09000000
802,0,-0.22800000,-0.44300000,0.86800000,0.16000000,-0.28000000,-0.25000000,0.13320421,-0.00405119,0.23043001,-27.10000000,13.02000000,-0.09000000
803,0,-0.22400000,-0.44500000,0.86500000,0.13000000,-0.03000000,-0.04000000,0.14033840,-0.00569754,0.22823487,-27.10000000,13.02000000,-0.09000000
804,0,-0.22700000,-0.43900000,0.87200000,0.07000000,-0.16000000,0.02000000,0.14041315,-0.00586842,0.22825623,-27.10000000,13.02000000,-0.09000000
805,0,-0.22500000,-0.44500000,0.86900000,-0.18000000,-0.08000000,-0.06000000,0.14023083,-0.00594945,0.22819546,-27.09000000,13.02000000,-0.09000000
806,0,-0.22400000,-0.44700000,0.87000000,0.10000000,0.10000000,-0.10000000,0.14033787,-0.00584241,0.22808842,-27.09000000,13.02000000,-0.09000000
807,0,-0.23200000,-0.44300000,0.87100000,-0.01000000,-0.08000000,0.51000000,0.14032753,-0.00592513,0.22861570,-27.10000000,13.02000000,-0.09000000
808,0,-0.22900000,-0.44300000,0.86400000,-0.10000000,0.05000000,0.03000000,0.14022421,-0.00587347,0.22864670,-27.09000000,13.02000000,-0.09000000
809,0,-0.22900000,-0.44600000,0.86700000,-0.14000000,0.16000000,-0.00000000,0.13244565,0.00301632,0.22864670,-27.09000000,13.02000000,-0.09000000
810,0,-0.22500000,-0.44500000,0.86600000,0.15000000,-0.15000000,0.06000000,0.13260678,0.00285519,0.22871115,-27.09000000,13.02000000,-0.09000000
811,0,-0.21700000,-0.44600000,0.86300000,-0.09000000,-0.22000000,-0.03000000,0.13251581,0.00263283,0.22868083,-27.09000000,13.02000000,-0.09000000
812,0,-0.22800000,-0.44900000,0.86800000,0.04000000,-0.20000000,-0.04000000,0.13255596,0.00243206,0.22864067,-27.09000000,13.02000000,-0.09000000
813,0,-0.22600000,-0.44500000,0.86800000,0.01000000,0.23000000,-0.07000000,0.13256609,0.00266514,0.22856974,-27.10000000,13.02000000,-0.09000000
814,0,-0.23000000,-0.44100000,0.86600000,0.01000000,-0.15000000,0.01000000,0.13257627,0.00251252,0.22857991,-27.09000000,13.02000000,-0.09000000
815,0,-0.22500000,-0.44300000,0.86800000,0.08000000,-0.09000000,-0.08000000,0.13707119,-0.00254427,0.22408499,-27.09000000,13.02000000,-0.09000000
816,0,-0.22700000,-0.44300000,0.86700000,-0.08000000,-0.09000000,0.13000000,0.13698423,-0.00264210,0.22422630,-27.10000000,13.02000000,-0.09000000
817,0,-0.22000000,-0.44000000,0.87100000,0.08000000,-0.07000000,-0.11000000,0.13708676,-0.00273182,0.22408533,-27.09000000,13.02000000,-0.09000000
818,0,-0.22600000,-0.44500000,0.86400000,-0.12000000,-0.12000000,-0.06000000,0.13694467,-0.00287391,0.22401428,-27.10000000,13.02000000,-0.09000000
819,0,-0.22500000,-0.44600000,0.86600000,0.09000000,-0.06000000,0.06000000,0.13705209,-0.00294552,0.22408590,-27.09000000,13.02000000,-0.09000000
820,0,-0.22700000,-0.44800000,0.86800000,-0.12000000,-0.17000000,0.02000000,0.13690966,-0.00314731,0.22410964,-27.09000000,13.02000000,-0.09000000
821,0,-0.22400000,-0.44300000,0.87100000,-0.04000000,0.18000000,0.04000000,0.13471930,0.00670929,0.22630000,-27.10000000,13.02000000,-0.09000000
822,0,-0.22800000,-0.44300000,0.86800000,0.01000000,0.28000000,0.15000000,0.13473210,0.00706774,0.22649202,-27.10000000,13.02000000,-0.09000000
823,0,-0.22500000,-0.44500000,0.86400000,-0.09000000,-0.26000000,-0.13000000,0.13463566,0.00678914,0.22635272,-27.10000000,13.02000000,-0.09000000
824,0,-0.22400000,-0.44300000,0.86700000,-0.10000000,0.11000000,0.19000000,0.13453449,0.00690043,0.22654494,-27.10000000,13.02000000,-0.09000000
