Measurement Count,IMU_MODE,Accel_X,Accel_Y,Accel_Z,Gyro_X,Gyro_Y,Gyro_Z,X_DEL_ANG,Y_DEL_ANG,Z_DEL_ANG,ROLL,PITCH,HEADING
1,0,0.70200000,-0.14100000,0.69700000,0.02000000,-0.00000000,0.16000000,0.00001984,0.00000000,0.00015871,0.00000000,-0.00000000,0.00000000
2,0,0.70600000,-0.13500000,0.70100000,0.18000000,-0.20000000,-0.04000000,0.00021122,-0.00021264,0.00011618,-11.24000000,-44.85000000,0.18000000
3,0,0.70500000,-0.13700000,0.69400000,0.05000000,-0.17000000,-0.08000000,0.00026123,-0.00038269,0.00003616,-11.28000000,-44.85000000,0.20000000
4,0,0.71300000,-0.13700000,0.69400000,0.21000000,-0.03000000,-0.07000000,0.00046843,-0.00041229,-0.00003291,-11.30000000,-44.81000000,0.22000000
5,0,0.71000000,-0.13800000,0.69400000,-0.12000000,-0.06000000,-0.10000000,0.00035037,-0.00047132,-0.00013129,-11.28000000,-44.84000000,0.20000000
6,0,0.70200000,-0.13800000,0.69600000,0.10000000,-0.00000000,0.29000000,0.00045112,-0.00047132,0.00016086,-11.29000000,-44.85000000,0.21000000
7,0,0.70600000,-0.13900000,0.69400000,0.11000000,-0.21000000,0.18000000,0.00056062,-0.00068037,0.00034005,-11.28000000,-44.84000000,0.20000000
8,0,0.70800000,-0.13800000,0.69300000,-0.25000000,0.17000000,-0.23000000,0.00031461,-0.00051308,0.00011372,-11.25000000,-44.83000000,0.18000000
9,0,0.70700000,-0.13900000,0.69600000,-0.02000000,-0.22000000,0.38000000,0.00029491,-0.00072978,0.00048802,-11.25000000,-44.84000000,0.18000000
10,0,0.70500000,-0.14100000,0.69600000,-0.04000000,0.16000000,0.35000000,0.00025543,-0.00057188,0.00083344,-11.25000000,-44.83000000,0.18000000
11,0,0.70500000,-0.14300000,0.69200000,0.19000000,0.16000000,-0.08000000,0.00045160,-0.00040669,0.00075085,-11.24000000,-44.84000000,0.18000000
12,0,0.70900000,-0.14000000,0.69400000,-0.01000000,0.24000000,-0.09000000,0.00044170,-0.00016914,0.00066177,-11.27000000,-44.84000000,0.19000000
13,0,0.71000000,-0.13800000,0.69300000,-0.42000000,-0.01000000,0.12000000,0.00001448,-0.00017931,0.00078383,-11.26000000,-44.85000000,0.19000000
14,0,0.70200000,-0.13900000,0.69400000,0.13000000,-0.19000000,-0.14000000,0.00014755,-0.00037380,0.00064052,-11.27000000,-44.85000000,0.19000000
15,0,0.71000000,-0.13200000,0.69400000,-0.00000000,-0.23000000,0.12000000,0.00014755,-0.00061434,0.00076602,-11.26000000,-44.85000000,0.19000000
16,0,0.70500000,-0.13800000,0.69500000,-0.04000000,-0.08000000,-0.04000000,0.00010616,-0.00069712,0.00072462,-11.25000000,-44.84000000,0.18000000
17,0,0.70300000,-0.13400000,0.69300000,-0.03000000,-0.01000000,-0.05000000,0.00007443,-0.00070770,0.00067175,-11.24000000,-44.84000000,0.18000000
18,0,0.70400000,-0.14100000,0.69900000,0.06000000,0.07000000,0.18000000,0.00014149,-0.00062947,0.00087291,-11.26000000,-44.83000000,0.19000000
19,0,0.70600000,-0.14000000,0.69400000,0.17000000,0.18000000,0.05000000,0.00032738,-0.00043264,0.00092759,-11.27000000,-44.83000000,0.19000000
20,0,0.70700000,-0.13700000,0.69500000,0.03000000,-0.00000000,-0.18000000,0.00035905,-0.00043264,0.00073758,-11.26000000,-44.84000000,0.19000000
21,0,0.70600000,-0.13800000,0.70100000,0.14000000,-0.23000000,-0.00000000,0.00050379,-0.00067043,0.00073758,-11.26000000,-44.84000000,0.19000000
22,0,0.70600000,-0.13700000,0.69600000,-0.11000000,0.10000000,-0.05000000,0.00038178,-0.00055951,0.00068212,-11.26000000,-44.84000000,0.19000000
23,0,0.70700000,-0.14300000,0.69300000,-0.23000000,0.04000000,-0.04000000,0.00011015,-0.00051227,0.00063488,-11.27000000,-44.84000000,0.20000000
24,0,0.70200000,-0.13700000,0.69400000,-0.19000000,-0.01000000,0.00000000,-0.00012815,-0.00052481,0.00063488,-11.27000000,-44.84000000,0.19000000
25,0,0.70000000,-0.13400000,0.69400000,0.04000000,0.11000000,-0.26000000,-0.00006496,-0.00035105,0.00022418,-11.25000000,-44.83000000,0.18000000
26,0,0.70600000,-0.14100000,0.69500000,0.05000000,0.04000000,-0.13000000,-0.00000854,-0.00030591,0.00007747,-11.25000000,-44.83000000,0.18000000
27,0,0.70700000,-0.13700000,0.69900000,-0.12000000,0.25000000,0.11000000,-0.00013875,-0.00003463,0.00019683,-11.25000000,-44.84000000,0.18000000
28,0,0.69900000,-0.13600000,0.69800000,0.11000000,0.18000000,-0.15000000,0.00199254,0.00345295,-0.00270948,-11.25000000,-44.83000000,0.18000000
29,0,0.71000000,-0.13800000,0.69300000,-0.11000000,0.10000000,0.01000000,0.00186408,0.00356974,-0.00269780,-11.26000000,-44.83000000,0.19000000
30,0,0.70400000,-0.13600000,0.69600000,-0.18000000,0.02000000,-0.27000000,0.00167703,0.00359052,-0.00297837,-11.25000000,-44.83000000,0.18000000
31,0,0.70600000,-0.13900000,0.69600000,0.09000000,0.11000000,0.15000000,0.00176935,0.00370336,-0.00282450,-11.25000000,-44.83000000,0.18000000
32,0,0.70500000,-0.14100000,0.69400000,0.12000000,0.10000000,-0.09000000,0.00189222,0.00380574,-0.00291665,-11.25000000,-44.84000000,0.18000000
33,0,0.70400000,-0.13900000,0.69300000,-0.29000000,-0.10000000,-0.16000000,0.00160318,0.00370607,-0.00307612,-11.25000000,-44.84000000,0.18000000
34,0,0.70500000,-0.13900000,0.69800000,-0.04000000,0.10000000,0.02000000,0.00156281,0.00380698,-0.00305594,-11.25000000,-44.84000000,0.18000000
35,0,0.70400000,-0.14100000,0.69400000,-0.03000000,0.08000000,-0.07000000,-0.00012483,0.00830736,-0.00699377,-11.26000000,-44.84000000,0.18000000
36,0,0.70400000,-0.14000000,0.69500000,0.13000000,0.06000000,-0.04000000,0.00002972,0.00837869,-0.00704132,-11.26000000,-44.84000000,0.18000000
37,0,0.70400000,-0.14000000,0.69500000,-0.10000000,-0.00000000,0.14000000,-0.00008430,0.00837869,-0.00688169,-11.26000000,-44.84000000,0.19000000
38,0,0.70900000,-0.13600000,0.69600000,0.12000000,-0.11000000,0.17000000,0.00003711,0.00826740,-0.00670970,-11.26000000,-44.83000000,0.18000000
39,0,0.70400000,-0.14200000,0.69700000,-0.19000000,-0.27000000,-0.05000000,-0.00015281,0.00799752,-0.00675968,-11.26000000,-44.83000000,0.19000000
40,0,0.70500000,-0.14100000,0.69700000,0.05000000,-0.24000000,-0.16000000,-0.00010263,0.00775666,-0.00692025,-11.26000000,-44.83000000,0.19000000
41,0,0.70100000,-0.14100000,0.69900000,-0.37000000,0.21000000,-0.06000000,-0.02064447,0.01941554,-0.01025136,-11.26000000,-44.83000000,0.18000000
42,0,0.70100000,-0.13800000,0.69400000,-0.09000000,-0.07000000,0.33000000,-0.02074061,0.01934077,-0.00989885,-11.26000000,-44.83000000,0.19000000
43,0,0.70100000,-0.14100000,0.70100000,0.21000000,0.18000000,-0.06000000,-0.02052785,0.01952313,-0.00995964,-11.26000000,-44.83000000,0.18000000
44,0,0.70400000,-0.14000000,0.70100000,0.00000000,-0.16000000,0.07000000,-0.02052785,0.01936252,-0.00988937,-11.26000000,-44.83000000,0.19000000
45,0,0.70300000,-0.14300000,0.69700000,-0.17000000,0.00000000,0.17000000,-0.02069631,0.01936252,-0.00972091,-11.27000000,-44.83000000,0.19000000
46,0,0.70600000,-0.14100000,0.69500000,-0.11000000,0.02000000,0.08000000,-0.02080642,0.01938254,-0.00964083,-11.27000000,-44.83000000,0.19000000
47,0,0.70700000,-0.14300000,0.69800000,0.04000000,0.10000000,0.19000000,-0.01859881,0.02490156,0.00084531,-11.27000000,-44.83000000,0.19000000
48,0,0.70600000,-0.13900000,0.69700000,0.14000000,-0.02000000,0.08000000,-0.01845384,0.02488085,0.00092815,-11.27000000,-44.83000000,0.19000000
49,0,0.70700000,-0.14100000,0.70000000,-0.35000000,-0.07000000,0.02000000,-0.01880126,0.02481136,0.00094801,-11.28000000,-44.83000000,0.19000000
50,0,0.70100000,-0.13700000,0.69700000,-0.11000000,0.11000000,0.01000000,-0.01891320,0.02492330,0.00095818,-11.27000000,-44.83000000,0.19000000
51,0,0.70600000,-0.13700000,0.69700000,0.08000000,0.22000000,-0.25000000,-0.01883301,0.02514384,0.00070758,-11.27000000,-44.82000000,0.19000000
52,0,0.70700000,-0.13300000,0.69800000,0.11000000,0.32000000,0.03000000,-0.01872387,0.02546133,0.00073734,-11.27000000,-44.82000000,0.19000000
53,0,0.70600000,-0.13600000,0.69500000,0.07000000,0.04000000,-0.16000000,-0.01477601,0.02771725,-0.00828634,-11.27000000,-44.82000000,0.19000000
54,0,0.70900000,-0.13900000,0.69600000,0.21000000,0.30000000,-0.15000000,-0.01455820,0.02802842,-0.00844192,-11.26000000,-44.82000000,0.18000000
55,0,0.70500000,-0.14000000,0.69500000,0.06000000,-0.19000000,-0.09000000,-0.01449741,0.02783592,-0.00853311,-11.26000000,-44.82000000,0.18000000
56,0,0.70200000,-0.13600000,0.69700000,-0.03000000,0.07000000,-0.26000000,-0.01452729,0.02790564,-0.00879206,-11.25000000,-44.82000000,0.18000000
57,0,0.70600000,-0.14100000,0.69800000,0.05000000,0.01000000,0.17000000,-0.01447794,0.02791551,-0.00862428,-11.25000000,-44.82000000,0.18000000
58,0,0.70500000,-0.13400000,0.69700000,-0.02000000,0.24000000,-0.02000000,-0.01449779,0.02815368,-0.00864413,-11.25000000,-44.82000000,0.17000000
59,0,0.70400000,-0.13900000,0.69700000,0.11000000,-0.07000000,0.19000000,-0.00838745,0.02426528,0.00191009,-11.25000000,-44.82000000,0.18000000
60,0,0.70300000,-0.13500000,0.69600000,0.14000000,0.10000000,0.25000000,-0.00824224,0.02436901,0.00216940,-11.25000000,-44.81000000,0.18000000
61,0,0.70400000,-0.13600000,0.69300000,0.11000000,-0.02000000,0.06000000,-0.00813137,0.02434885,0.00222987,-11.25000000,-44.81000000,0.18000000
62,0,0.70200000,-0.13700000,0.69600000,-0.10000000,-0.18000000,-0.10000000,-0.00823175,0.02416816,0.00212948,-11.25000000,-44.81000000,0.18000000
63,0,0.70400000,-0.13800000,0.69700000,0.21000000,-0.10000000,-0.10000000,-0.00802435,0.02406939,0.00203072,-11.25000000,-44.81000000,0.18000000
64,0,0.70600000,-0.14100000,0.69800000,-0.13000000,0.19000000,0.13000000,-0.00815389,0.02425872,0.00216026,-11.25000000,-44.81000000,0.18000000
65,0,0.70700000,-0.13800000,0.69700000,0.16000000,-0.00000000,0.15000000,0.00074051,0.02425872,0.01049876,-11.25000000,-44.81000000,0.18000000
66,0,0.70700000,-0.13900000,0.69700000,-0.20000000,0.31000000,-0.04000000,0.00053202,0.02458189,0.01045706,-11.24000000,-44.81000000,0.18000000
67,0,0.70700000,-0.14000000,0.69400000,-0.14000000,-0.10000000,-0.10000000,0.00038394,0.02447611,0.01035129,-11.25000000,-44.81000000,0.18000000
68,0,0.71000000,-0.13700000,0.69500000,0.11000000,0.01000000,-0.04000000,0.00049321,0.02448605,0.01031156,-11.25000000,-44.81000000,0.18000000
69,0,0.70300000,-0.14000000,0.69800000,-0.22000000,-0.13000000,0.12000000,0.00027593,0.02435765,0.01043007,-11.25000000,-44.81000000,0.18000000
70,0,0.70500000,-0.13900000,0.69300000,0.01000000,0.11000000,-0.22000000,0.00028584,0.02446669,0.01021201,-11.25000000,-44.81000000,0.18000000
71,0,0.70400000,-0.14100000,0.69600000,0.09000000,-0.24000000,0.00000000,0.00536775,0.01091491,0.01021201,-11.25000000,-44.81000000,0.18000000
72,0,0.70900000,-0.13600000,0.69600000,0.04000000,0.04000000,-0.25000000,0.00540980,0.01095695,0.00994924,-11.25000000,-44.81000000,0.18000000
73,0,0.70500000,-0.13800000,0.69700000,-0.23000000,0.14000000,-0.03000000,0.00517902,0.01109743,0.00991914,-11.25000000,-44.81000000,0.18000000
74,0,0.70600000,-0.14000000,0.69700000,0.02000000,-0.06000000,0.03000000,0.00519873,0.01103830,0.00994871,-11.25000000,-44.81000000,0.18000000
75,0,0.70500000,-0.13500000,0.69500000,-0.06000000,0.07000000,-0.03000000,0.00513942,0.01110750,0.00991905,-11.25000000,-44.81000000,0.18000000
76,0,0.70500000,-0.13600000,0.69700000,0.08000000,-0.21000000,0.05000000,0.00521908,0.01089839,0.00996884,-11.25000000,-44.81000000,0.18000000
77,0,0.69900000,-0.13400000,0.69500000,0.16000000,0.13000000,0.15000000,0.01409620,0.01811105,0.01829114,-11.25000000,-44.81000000,0.18000000
78,0,0.70400000,-0.13600000,0.69300000,0.03000000,0.14000000,0.16000000,0.01412774,0.01825823,0.01845935,-11.25000000,-44.81000000,0.18000000
79,0,0.70500000,-0.13700000,0.69900000,0.27000000,-0.06000000,-0.11000000,0.01439704,0.01819839,0.01834963,-11.25000000,-44.81000000,0.18000000
80,0,0.70400000,-0.14100000,0.69600000,-0.03000000,0.22000000,-0.17000000,0.01436739,0.01841577,0.01818165,-11.25000000,-44.81000000,0.18000000
81,0,0.70200000,-0.13700000,0.70100000,0.05000000,-0.04000000,0.13000000,0.01441663,0.01837638,0.01830967,-11.25000000,-44.81000000,0.18000000
82,0,0.70500000,-0.14200000,0.69700000,0.05000000,-0.12000000,0.16000000,0.01446661,0.01825644,0.01846960,-11.25000000,-44.81000000,0.18000000
83,0,0.70500000,-0.13700000,0.69600000,0.03000000,0.10000000,-0.04000000,0.01613866,0.02382993,0.01624020,-11.25000000,-44.81000000,0.18000000
84,0,0.70100000,-0.13800000,0.69700000,-0.09000000,0.15000000,0.14000000,0.01604411,0.02398752,0.01638728,-11.25000000,-44.81000000,0.18000000
85,0,0.70500000,-0.13900000,0.69800000,-0.20000000,0.06000000,-0.05000000,0.01584515,0.02404721,0.01633754,-11.25000000,-44.81000000,0.18000000
86,0,0.70300000,-0.14100000,0.69800000,0.01000000,-0.20000000,0.13000000,0.01585503,0.02384963,0.01646597,-11.25000000,-44.81000000,0.18000000
87,0,0.71200000,-0.13700000,0.69300000,0.14000000,0.07000000,-0.13000000,0.01599400,0.02391912,0.01633692,-11.25000000,-44.81000000,0.18000000
88,0,0.70600000,-0.13700000,0.69400000,-0.14000000,-0.19000000,0.03000000,0.01585339,0.02372830,0.01636705,-11.25000000,-44.81000000,0.18000000
89,0,0.69800000,-0.14100000,0.69700000,0.09000000,-0.07000000,-0.02000000,0.02092428,0.01978427,0.01524019,-11.26000000,-44.81000000,0.18000000
90,0,0.70000000,-0.14500000,0.69600000,-0.20000000,-0.05000000,-0.07000000,0.02071631,0.01973228,0.01516740,-11.25000000,-44.81000000,0.18000000
91,0,0.70600000,-0.13800000,0.69500000,-0.24000000,-0.32000000,-0.14000000,0.02047853,0.01941525,0.01502870,-11.26000000,-44.81000000,0.18000000
92,0,0.70100000,-0.13300000,0.69400000,0.07000000,0.01000000,0.06000000,0.02054777,0.01942514,0.01508804,-11.26000000,-44.81000000,0.18000000
93,0,0.70100000,-0.13700000,0.69900000,0.01000000,-0.07000000,-0.10000000,0.02055795,0.01935385,0.01498620,-11.25000000,-44.81000000,0.18000000
94,0,0.70700000,-0.14200000,0.69400000,-0.02000000,-0.03000000,0.20000000,0.02053776,0.01932356,0.01518816,-11.25000000,-44.81000000,0.18000000
95,0,0.70400000,-0.14200000,0.69500000,0.16000000,0.05000000,-0.10000000,0.02946016,0.02211181,0.00961166,-11.25000000,-44.81000000,0.18000000
96,0,0.69900000,-0.13600000,0.69200000,-0.20000000,-0.02000000,-0.06000000,0.02921190,0.02208698,0.00953718,-11.25000000,-44.81000000,0.18000000
97,0,0.70500000,-0.13300000,0.69200000,0.10000000,0.00000000,0.14000000,0.02931369,0.02208698,0.00967969,-11.25000000,-44.81000000,0.18000000
98,0,0.70900000,-0.14100000,0.69700000,-0.09000000,0.16000000,0.11000000,0.02922330,0.02224767,0.00979017,-11.25000000,-44.81000000,0.18000000
99,0,0.70300000,-0.13600000,0.69600000,0.26000000,0.06000000,-0.18000000,0.02948703,0.02230853,0.00960759,-11.24000000,-44.81000000,0.17000000
100,0,0.70300000,-0.13500000,0.69800000,-0.09000000,0.10000000,0.11000000,0.02939627,0.02240937,0.00971851,-11.24000000,-44.80000000,0.17000000
101,0,0.70400000,-0.13700000,0.69400000,0.26000000,-0.33000000,0.02000000,0.04373915,0.00420495,0.01082181,-11.24000000,-44.80000000,0.17000000
102,0,0.70800000,-0.13400000,0.69700000,-0.26000000,-0.02000000,-0.21000000,0.04346551,0.00418390,0.01060078,-11.24000000,-44.81000000,0.17000000
103,0,0.70100000,-0.13500000,0.69500000,-0.07000000,0.12000000,0.02000000,0.04339517,0.00430447,0.01062088,-11.24000000,-44.81000000,0.17000000
104,0,0.70500000,-0.14400000,0.69500000,0.02000000,-0.24000000,0.07000000,0.04341512,0.00406504,0.01069072,-11.24000000,-44.81000000,0.17000000
105,0,0.70300000,-0.14100000,0.69700000,0.21000000,-0.08000000,0.05000000,0.04362578,0.00398479,0.01074087,-11.24000000,-44.81000000,0.17000000
106,0,0.70800000,-0.14200000,0.69600000,0.08000000,0.06000000,0.06000000,0.04370603,0.00404498,0.01080106,-11.24000000,-44.81000000,0.17000000
107,0,0.70000000,-0.13600000,0.69500000,-0.25000000,0.04000000,0.00000000,0.02961731,0.00629917,0.01080106,-11.24000000,-44.81000000,0.17000000
108,0,0.70500000,-0.13500000,0.69800000,-0.02000000,-0.25000000,-0.05000000,0.02959667,0.00604112,0.01074945,-11.24000000,-44.81000000,0.17000000
109,0,0.70400000,-0.13900000,0.69000000,-0.10000000,-0.33000000,0.11000000,0.02949781,0.00571488,0.01085819,-11.24000000,-44.81000000,0.17000000
110,0,0.70800000,-0.14100000,0.69500000,-0.01000000,0.14000000,0.01000000,0.02948763,0.00585739,0.01086837,-11.24000000,-44.81000000,0.17000000
111,0,0.70800000,-0.14000000,0.69600000,-0.04000000,0.04000000,-0.04000000,0.02944799,0.00589703,0.01082873,-11.24000000,-44.81000000,0.17000000
112,0,0.70400000,-0.14000000,0.69900000,0.12000000,-0.10000000,-0.16000000,0.02956677,0.00579805,0.01067037,-11.24000000,-44.81000000,0.17000000
113,0,0.71100000,-0.14000000,0.70000000,0.24000000,0.15000000,-0.07000000,0.04289515,0.01412829,0.00678292,-11.24000000,-44.81000000,0.17000000
114,0,0.70800000,-0.13700000,0.69300000,0.15000000,0.19000000,-0.06000000,0.04305106,0.01432577,0.00672056,-11.24000000,-44.81000000,0.17000000
115,0,0.70000000,-0.13800000,0.69700000,0.16000000,0.11000000,0.11000000,0.04320946,0.01443468,0.00682946,-11.24000000,-44.81000000,0.17000000
116,0,0.70900000,-0.14000000,0.69300000,-0.02000000,0.14000000,0.09000000,0.04318901,0.01457785,0.00692150,-11.24000000,-44.81000000,0.17000000
117,0,0.70300000,-0.13600000,0.69600000,-0.16000000,-0.14000000,0.02000000,0.04302843,0.01443735,0.00694158,-11.24000000,-44.81000000,0.17000000
118,0,0.70500000,-0.13500000,0.69600000,-0.06000000,-0.02000000,-0.24000000,0.04296853,0.01441738,0.00670197,-11.24000000,-44.81000000,0.17000000
119,0,0.70400000,-0.13800000,0.69100000,0.09000000,0.09000000,-0.06000000,0.04798839,0.01943724,0.00335540,-11.24000000,-44.81000000,0.17000000
120,0,0.70300000,-0.13500000,0.69300000,0.11000000,-0.03000000,0.24000000,0.04810269,0.01940607,0.00360479,-11.24000000,-44.81000000,0.17000000
121,0,0.70200000,-0.14100000,0.69200000,-0.02000000,-0.18000000,-0.23000000,0.04808293,0.01922821,0.00337752,-11.24000000,-44.81000000,0.17000000
122,0,0.70300000,-0.13900000,0.69300000,-0.09000000,-0.02000000,-0.12000000,0.04799213,0.01920803,0.00325646,-11.24000000,-44.81000000,0.17000000
123,0,0.70500000,-0.13700000,0.69400000,0.08000000,0.22000000,-0.07000000,0.04807149,0.01942625,0.00318703,-11.24000000,-44.81000000,0.17000000
124,0,0.70700000,-0.13900000,0.69700000,0.16000000,0.30000000,0.01000000,0.04822947,0.01972247,0.00319690,-11.24000000,-44.81000000,0.17000000
125,0,0.70800000,-0.13900000,0.69300000,0.01000000,0.16000000,-0.06000000,0.04879222,0.02872651,-0.00017961,-11.24000000,-44.81000000,0.17000000
126,0,0.71000000,-0.14100000,0.69500000,-0.02000000,0.02000000,0.04000000,0.04877143,0.02874730,-0.00013803,-11.25000000,-44.81000000,0.17000000
127,0,0.70300000,-0.13800000,0.70000000,0.09000000,0.16000000,0.08000000,0.04886186,0.02890807,-0.00005765,-11.25000000,-44.81000000,0.17000000
128,0,0.70300000,-0.13900000,0.70000000,0.25000000,-0.04000000,-0.18000000,0.04910967,0.02886842,-0.00023606,-11.25000000,-44.81000000,0.17000000
129,0,0.70400000,-0.13800000,0.69700000,-0.08000000,0.00000000,-0.06000000,0.04903088,0.02886842,-0.00029515,-11.25000000,-44.81000000,0.17000000
130,0,0.70500000,-0.13500000,0.69500000,-0.12000000,0.09000000,-0.29000000,0.04891208,0.02895752,-0.00058225,-11.25000000,-44.81000000,0.17000000
131,0,0.70600000,-0.13900000,0.69800000,-0.13000000,0.11000000,0.15000000,0.04168879,0.03506954,0.00775231,-11.25000000,-44.80000000,0.17000000
132,0,0.70500000,-0.14000000,0.69600000,0.06000000,0.03000000,-0.02000000,0.04175128,0.03510078,0.00773148,-11.25000000,-44.80000000,0.17000000
133,0,0.70600000,-0.13900000,0.69400000,-0.07000000,0.15000000,0.00000000,0.04167976,0.03525404,0.00773148,-11.24000000,-44.80000000,0.17000000
134,0,0.70500000,-0.13800000,0.69600000,-0.07000000,-0.02000000,-0.13000000,0.04160984,0.03523406,0.00760163,-11.25000000,-44.80000000,0.17000000
135,0,0.70100000,-0.14100000,0.69600000,-0.02000000,0.03000000,0.04000000,0.04159004,0.03526377,0.00764124,-11.25000000,-44.80000000,0.17000000
136,0,0.70200000,-0.14100000,0.69000000,-0.08000000,-0.13000000,0.07000000,0.04151053,0.03513457,0.00771081,-11.25000000,-44.80000000,0.17000000
137,0,0.70700000,-0.13800000,0.69600000,0.20000000,0.08000000,-0.17000000,0.05282299,0.03965956,-0.00190478,-11.25000000,-44.80000000,0.17000000
138,0,0.70700000,-0.13700000,0.69600000,-0.02000000,-0.03000000,-0.09000000,0.05280190,0.03962793,-0.00199965,-11.25000000,-44.80000000,0.17000000
139,0,0.70800000,-0.14100000,0.70000000,-0.14000000,-0.05000000,0.02000000,0.05266207,0.03957799,-0.00197967,-11.25000000,-44.80000000,0.17000000
140,0,0.70700000,-0.13900000,0.69600000,0.16000000,-0.17000000,0.05000000,0.05282028,0.03940989,-0.00193023,-11.24000000,-44.80000000,0.17000000
141,0,0.70400000,-0.14100000,0.69300000,0.16000000,0.09000000,0.14000000,0.05298612,0.03950318,-0.00178512,-11.24000000,-44.81000000,0.17000000
142,0,0.70300000,-0.13900000,0.69600000,0.23000000,-0.05000000,-0.13000000,0.05322079,0.03945216,-0.00191776,-11.24000000,-44.81000000,0.17000000
143,0,0.70500000,-0.13900000,0.70000000,0.10000000,-0.02000000,-0.13000000,0.05876167,0.03834399,-0.00912091,-11.24000000,-44.81000000,0.17000000
144,0,0.70500000,-0.14000000,0.69900000,-0.15000000,-0.19000000,0.23000000,0.05860165,0.03814130,-0.00887554,-11.24000000,-44.81000000,0.17000000
145,0,0.70300000,-0.13600000,0.69400000,-0.04000000,0.07000000,-0.01000000,0.05856145,0.03821165,-0.00888559,-11.25000000,-44.81000000,0.17000000
146,0,0.70400000,-0.13700000,0.69800000,-0.24000000,0.08000000,0.07000000,0.05832236,0.03829135,-0.00881586,-11.25000000,-44.81000000,0.18000000
147,0,0.70700000,-0.13600000,0.69900000,0.16000000,0.15000000,-0.26000000,0.05848286,0.03844182,-0.00907667,-11.25000000,-44.81000000,0.18000000
148,0,0.69700000,-0.13400000,0.69500000,0.08000000,0.04000000,-0.04000000,0.05857341,0.03848709,-0.00912195,-11.25000000,-44.81000000,0.18000000
149,0,0.70200000,-0.14200000,0.69400000,-0.11000000,0.22000000,0.01000000,0.05247923,0.05067546,-0.00856793,-11.25000000,-44.81000000,0.18000000
150,0,0.70300000,-0.14100000,0.69600000,-0.04000000,-0.19000000,-0.08000000,0.05243700,0.05047490,-0.00865238,-11.25000000,-44.81000000,0.18000000
151,0,0.70600000,-0.14000000,0.69300000,-0.04000000,0.02000000,-0.16000000,0.05239708,0.05049486,-0.00881208,-11.25000000,-44.81000000,0.18000000
152,0,0.70700000,-0.14100000,0.69600000,-0.26000000,0.11000000,0.31000000,0.05214054,0.05060339,-0.00850621,-11.25000000,-44.81000000,0.18000000
153,0,0.70200000,-0.13800000,0.69300000,0.04000000,-0.18000000,-0.18000000,0.05218001,0.05042579,-0.00868381,-11.25000000,-44.81000000,0.18000000
154,0,0.70700000,-0.13900000,0.69700000,-0.13000000,-0.04000000,-0.05000000,0.05205140,0.05038622,-0.00873327,-11.25000000,-44.81000000,0.18000000
155,0,0.71000000,-0.13500000,0.69800000,0.17000000,0.10000000,0.30000000,0.05222294,0.05048713,-0.00843055,-11.25000000,-44.81000000,0.18000000
156,0,0.70100000,-0.13700000,0.69800000,-0.01000000,-0.07000000,0.09000000,0.05163678,0.04638399,-0.00315508,-11.25000000,-44.81000000,0.18000000
157,0,0.70300000,-0.13500000,0.69500000,0.19000000,0.05000000,0.07000000,0.05183630,0.04643649,-0.00308158,-11.25000000,-44.81000000,0.18000000
158,0,0.70200000,-0.14200000,0.69700000,0.03000000,0.31000000,0.02000000,0.05186649,0.04674843,-0.00306145,-11.25000000,-44.81000000,0.18000000
159,0,0.70900000,-0.14200000,0.69500000,0.17000000,-0.07000000,0.07000000,0.05203414,0.04667939,-0.00299242,-11.25000000,-44.81000000,0.18000000
160,0,0.70500000,-0.13800000,0.69900000,0.04000000,-0.03000000,0.09000000,0.05207379,0.04664966,-0.00290321,-11.26000000,-44.81000000,0.18000000
161,0,0.70600000,-0.14100000,0.69700000,-0.09000000,0.13000000,-0.16000000,0.05198426,0.04677898,-0.00306238,-11.26000000,-44.81000000,0.18000000
162,0,0.70500000,-0.13700000,0.69600000,-0.01000000,-0.05000000,0.26000000,0.05142039,0.04395965,0.01159813,-11.26000000,-44.81000000,0.19000000
163,0,0.70100000,-0.13900000,0.69400000,-0.29000000,0.15000000,0.03000000,0.05111752,0.04411630,0.01162947,-11.26000000,-44.80000000,0.19000000
164,0,0.70400000,-0.14200000,0.69500000,0.23000000,-0.14000000,-0.25000000,0.05134737,0.04397640,0.01137964,-11.26000000,-44.81000000,0.19000000
165,0,0.70600000,-0.14500000,0.69400000,0.05000000,0.10000000,0.05000000,0.05139709,0.04407586,0.01142936,-11.26000000,-44.81000000,0.19000000
166,0,0.70500000,-0.13500000,0.69800000,-0.13000000,-0.17000000,-0.18000000,0.05126842,0.04390759,0.01125120,-11.26000000,-44.81000000,0.19000000
167,0,0.71000000,-0.14000000,0.69300000,-0.32000000,-0.06000000,0.08000000,0.05095055,0.04384799,0.01133067,-11.26000000,-44.81000000,0.18000000
168,0,0.70100000,-0.13800000,0.69200000,-0.16000000,-0.09000000,-0.17000000,0.04205832,0.03884611,0.00188268,-11.26000000,-44.81000000,0.18000000
169,0,0.70200000,-0.13800000,0.69600000,-0.07000000,-0.03000000,-0.20000000,0.04198612,0.03881517,0.00167638,-11.26000000,-44.81000000,0.18000000
170,0,0.69900000,-0.13700000,0.69400000,0.00000000,-0.14000000,0.10000000,0.04198612,0.03867690,0.00177514,-11.26000000,-44.81000000,0.18000000
171,0,0.70000000,-0.13400000,0.69700000,-0.05000000,-0.24000000,-0.20000000,0.04193657,0.03843907,0.00157695,-11.26000000,-44.81000000,0.18000000
172,0,0.71000000,-0.14100000,0.69500000,-0.15000000,-0.06000000,0.19000000,0.04178835,0.03837978,0.00176469,-11.26000000,-44.81000000,0.18000000
173,0,0.70900000,-0.14000000,0.69500000,-0.09000000,-0.02000000,-0.09000000,0.04169751,0.03835959,0.00167385,-11.26000000,-44.81000000,0.18000000
174,0,0.70700000,-0.13400000,0.69300000,-0.01000000,0.27000000,0.23000000,0.04113980,0.05341789,0.01450128,-11.26000000,-44.81000000,0.18000000
175,0,0.69800000,-0.13700000,0.69700000,-0.07000000,-0.30000000,0.08000000,0.04106706,0.05310615,0.01458441,-11.26000000,-44.81000000,0.18000000
176,0,0.70600000,-0.13800000,0.70000000,-0.17000000,-0.31000000,-0.01000000,0.04089875,0.05279924,0.01457451,-11.26000000,-44.81000000,0.19000000
177,0,0.70200000,-0.14100000,0.69400000,-0.05000000,-0.11000000,0.17000000,0.04084942,0.05269071,0.01474225,-11.26000000,-44.81000000,0.18000000
178,0,0.70800000,-0.14100000,0.69200000,-0.02000000,-0.02000000,0.06000000,0.04082965,0.05267094,0.01480155,-11.26000000,-44.81000000,0.18000000
179,0,0.70100000,-0.13500000,0.70100000,-0.07000000,-0.04000000,-0.18000000,0.04075863,0.05263036,0.01461893,-11.26000000,-44.81000000,0.18000000
180,0,0.70500000,-0.13800000,0.69400000,-0.12000000,-0.41000000,-0.22000000,0.03400555,0.02955732,0.00223827,-11.26000000,-44.81000000,0.18000000
181,0,0.70100000,-0.13400000,0.70200000,0.13000000,0.02000000,-0.00000000,0.03414745,0.02957915,0.00223827,-11.26000000,-44.81000000,0.18000000
182,0,0.70300000,-0.13500000,0.69700000,-0.07000000,0.18000000,0.15000000,0.03407645,0.02976173,0.00239042,-11.26000000,-44.80000000,0.18000000
183,0,0.70700000,-0.13400000,0.69700000,-0.06000000,-0.07000000,0.03000000,0.03401692,0.02969228,0.00242019,-11.26000000,-44.81000000,0.18000000
184,0,0.70400000,-0.13900000,0.69600000,0.05000000,0.14000000,0.02000000,0.03406722,0.02983312,0.00244031,-11.26000000,-44.81000000,0.18000000
185,0,0.70700000,-0.13500000,0.69500000,0.29000000,-0.15000000,-0.17000000,0.03435903,0.02968218,0.00226925,-11.26000000,-44.80000000,0.18000000
186,0,0.70600000,-0.14200000,0.69500000,0.11000000,-0.00000000,-0.18000000,0.04045728,0.02968218,-0.00770970,-11.26000000,-44.80000000,0.18000000
187,0,0.70400000,-0.13900000,0.69500000,-0.04000000,0.04000000,-0.07000000,0.04041522,0.02972423,-0.00778329,-11.26000000,-44.81000000,0.18000000
188,0,0.70200000,-0.14000000,0.69500000,0.11000000,0.48000000,0.08000000,0.04052541,0.03020505,-0.00770316,-11.26000000,-44.80000000,0.18000000
189,0,0.70700000,-0.13700000,0.69500000,-0.15000000,-0.34000000,0.06000000,0.04037612,0.02986666,-0.00764344,-11.26000000,-44.80000000,0.18000000
190,0,0.69900000,-0.13500000,0.69400000,-0.24000000,-0.04000000,-0.18000000,0.04013531,0.02982653,-0.00782405,-11.26000000,-44.81000000,0.18000000
191,0,0.70300000,-0.14000000,0.69600000,-0.01000000,0.04000000,-0.21000000,0.04012534,0.02986643,-0.00803356,-11.26000000,-44.81000000,0.18000000
192,0,0.70100000,-0.14200000,0.69200000,0.04000000,0.04000000,-0.19000000,0.04238615,0.03212724,-0.01877242,-11.26000000,-44.81000000,0.18000000
193,0,0.70200000,-0.13800000,0.69500000,-0.02000000,-0.11000000,-0.16000000,0.04236400,0.03200541,-0.01894963,-11.25000000,-44.81000000,0.18000000
194,0,0.70200000,-0.14400000,0.69600000,0.11000000,0.03000000,0.03000000,0.04247846,0.03203663,-0.01891841,-11.26000000,-44.81000000,0.18000000
195,0,0.70200000,-0.13900000,0.69100000,-0.16000000,0.07000000,-0.19000000,0.04231422,0.03210848,-0.01911344,-11.26000000,-44.81000000,0.18000000
196,0,0.70300000,-0.13600000,0.69300000,0.12000000,-0.30000000,0.24000000,0.04245325,0.03176091,-0.01883538,-11.26000000,-44.81000000,0.18000000
197,0,0.70700000,-0.13900000,0.69600000,0.05000000,0.09000000,0.04000000,0.04250379,0.03185188,-0.01879495,-11.26000000,-44.81000000,0.18000000
198,0,0.71300000,-0.13400000,0.69400000,0.27000000,-0.05000000,0.12000000,0.05741177,0.02909114,-0.01216918,-11.26000000,-44.81000000,0.18000000
199,0,0.70200000,-0.13800000,0.69000000,0.08000000,0.29000000,0.04000000,0.05749589,0.02939608,-0.01212712,-11.26000000,-44.81000000,0.18000000
200,0,0.70500000,-0.13700000,0.69800000,-0.10000000,-0.09000000,0.29000000,0.05739553,0.02930576,-0.01183608,-11.26000000,-44.81000000,0.18000000
201,0,0.70600000,-0.13800000,0.69600000,-0.03000000,-0.07000000,0.02000000,0.05736498,0.02923447,-0.01181571,-11.26000000,-44.81000000,0.18000000
202,0,0.70000000,-0.13500000,0.69500000,0.08000000,0.07000000,-0.29000000,0.05744515,0.02930463,-0.01210634,-11.26000000,-44.81000000,0.18000000
203,0,0.70300000,-0.13400000,0.69300000,-0.01000000,-0.22000000,0.10000000,0.05743516,0.02908483,-0.01200643,-11.26000000,-44.81000000,0.18000000
204,0,0.70600000,-0.14000000,0.69600000,-0.04000000,0.10000000,-0.10000000,0.05521475,0.03463587,-0.01755747,-11.26000000,-44.81000000,0.18000000
205,0,0.70300000,-0.13400000,0.69700000,0.11000000,0.06000000,0.02000000,0.05533057,0.03469904,-0.01753641,-11.25000000,-44.81000000,0.18000000
206,0,0.69500000,-0.13900000,0.69600000,0.05000000,0.16000000,-0.19000000,0.05538078,0.03485970,-0.01772719,-11.25000000,-44.81000000,0.18000000
207,0,0.70600000,-0.13400000,0.69300000,-0.18000000,-0.02000000,-0.01000000,0.05520034,0.03483965,-0.01773721,-11.25000000,-44.81000000,0.17000000
208,0,0.70400000,-0.13400000,0.69200000,-0.22000000,0.12000000,0.01000000,0.05498107,0.03495925,-0.01772725,-11.25000000,-44.81000000,0.18000000
209,0,0.70300000,-0.13600000,0.70000000,0.15000000,-0.05000000,-0.04000000,0.05513147,0.03490912,-0.01776735,-11.25000000,-44.81000000,0.18000000
210,0,0.70600000,-0.13700000,0.69200000,-0.13000000,-0.03000000,0.04000000,0.04778851,0.03321459,-0.01550798,-11.26000000,-44.81000000,0.18000000
211,0,0.70500000,-0.13900000,0.69900000,-0.18000000,-0.07000000,0.04000000,0.04759992,0.03314125,-0.01546607,-11.26000000,-44.81000000,0.18000000
212,0,0.70500000,-0.14000000,0.69200000,0.17000000,-0.14000000,0.01000000,0.04777406,0.03299784,-0.01545583,-11.26000000,-44.81000000,0.18000000
213,0,0.70500000,-0.13800000,0.69500000,-0.14000000,0.03000000,-0.18000000,0.04763402,0.03302785,-0.01563587,-11.26000000,-44.81000000,0.18000000
214,0,0.70500000,-0.14100000,0.70300000,0.07000000,0.08000000,-0.22000000,0.04770357,0.03310734,-0.01585447,-11.26000000,-44.81000000,0.18000000
215,0,0.70300000,-0.13800000,0.69400000,0.22000000,-0.08000000,-0.15000000,0.04792321,0.03302747,-0.01600422,-11.26000000,-44.81000000,0.18000000
216,0,0.70800000,-0.13500000,0.69500000,-0.17000000,0.37000000,-0.05000000,0.03849050,0.05355749,-0.01877855,-11.25000000,-44.81000000,0.18000000
217,0,0.70200000,-0.13800000,0.69300000,0.14000000,-0.07000000,-0.27000000,0.03863771,0.05348388,-0.01906246,-11.25000000,-44.81000000,0.18000000
218,0,0.70700000,-0.13800000,0.69700000,0.01000000,-0.19000000,0.18000000,0.03864785,0.05329134,-0.01888005,-11.25000000,-44.81000000,0.18000000
219,0,0.70400000,-0.13900000,0.69800000,-0.13000000,-0.31000000,0.24000000,0.03851803,0.05298177,-0.01864039,-11.25000000,-44.81000000,0.18000000
220,0,0.70600000,-0.13800000,0.69300000,-0.06000000,0.14000000,0.10000000,0.03845817,0.05312144,-0.01854062,-11.26000000,-44.81000000,0.18000000
221,0,0.70100000,-0.13800000,0.69800000,-0.12000000,0.18000000,0.15000000,0.03833805,0.05330162,-0.01839047,-11.26000000,-44.81000000,0.18000000
222,0,0.70100000,-0.14300000,0.69700000,-0.01000000,0.12000000,-0.01000000,0.03778305,0.05996169,-0.01894548,-11.26000000,-44.81000000,0.18000000
223,0,0.70400000,-0.13800000,0.69500000,0.08000000,-0.03000000,0.10000000,0.03786803,0.05992983,-0.01883926,-11.26000000,-44.81000000,0.18000000
224,0,0.70300000,-0.13900000,0.69300000,0.13000000,-0.02000000,0.15000000,0.03800029,0.05990948,-0.01868664,-11.26000000,-44.81000000,0.18000000
225,0,0.70200000,-0.14100000,0.70000000,-0.07000000,0.13000000,0.22000000,0.03793006,0.06003992,-0.01846590,-11.26000000,-44.81000000,0.18000000
226,0,0.70300000,-0.13900000,0.69500000,0.03000000,0.04000000,0.18000000,0.03795998,0.06007981,-0.01828637,-11.26000000,-44.81000000,0.18000000
227,0,0.70400000,-0.14100000,0.69500000,0.04000000,-0.04000000,0.10000000,0.03800008,0.06003972,-0.01818612,-11.26000000,-44.81000000,0.18000000
228,0,0.70800000,-0.14000000,0.69200000,0.14000000,-0.13000000,-0.06000000,0.04590741,0.05269719,-0.02157498,-11.26000000,-44.81000000,0.18000000
229,0,0.70300000,-0.13500000,0.69300000,0.00000000,-0.02000000,-0.02000000,0.04590741,0.05267588,-0.02159629,-11.26000000,-44.81000000,0.18000000
230,0,0.70100000,-0.13800000,0.69400000,-0.14000000,0.04000000,-0.26000000,0.04576804,0.05271570,-0.02185512,-11.25000000,-44.81000000,0.18000000
231,0,0.70500000,-0.14100000,0.70000000,-0.18000000,0.07000000,0.11000000,0.04558903,0.05278532,-0.02174572,-11.26000000,-44.81000000,0.18000000
232,0,0.70300000,-0.13300000,0.69700000,-0.07000000,-0.04000000,-0.03000000,0.04551957,0.05274563,-0.02177549,-11.26000000,-44.81000000,0.18000000
233,0,0.70100000,-0.14300000,0.69700000,0.11000000,0.10000000,-0.10000000,0.04563015,0.05284616,-0.02187601,-11.26000000,-44.81000000,0.18000000
234,0,0.70600000,-0.14000000,0.69700000,-0.03000000,0.08000000,0.13000000,0.04396352,0.05729052,-0.01465393,-11.26000000,-44.81000000,0.18000000
235,0,0.70400000,-0.13600000,0.69500000,-0.08000000,-0.12000000,0.19000000,0.04387825,0.05716262,-0.01445142,-11.26000000,-44.81000000,0.18000000
236,0,0.70800000,-0.13800000,0.69200000,-0.11000000,0.06000000,0.05000000,0.04376799,0.05722276,-0.01440130,-11.26000000,-44.81000000,0.18000000
237,0,0.70400000,-0.13900000,0.69800000,-0.06000000,0.16000000,-0.08000000,0.04370826,0.05738204,-0.01448094,-11.26000000,-44.81000000,0.18000000
238,0,0.70100000,-0.13600000,0.69700000,0.13000000,-0.17000000,-0.10000000,0.04383674,0.05721402,-0.01457977,-11.26000000,-44.81000000,0.18000000
239,0,0.70300000,-0.14300000,0.69500000,0.09000000,0.10000000,0.02000000,0.04392741,0.05731477,-0.01455963,-11.26000000,-44.81000000,0.18000000
240,0,0.70500000,-0.13600000,0.69400000,-0.11000000,-0.04000000,0.06000000,0.03782072,0.05509415,-0.01122870,-11.26000000,-44.81000000,0.18000000
241,0,0.70800000,-0.13900000,0.69800000,-0.00000000,-0.25000000,0.49000000,0.03782072,0.05482835,-0.01070773,-11.26000000,-44.81000000,0.18000000
242,0,0.70500000,-0.13600000,0.69600000,0.02000000,0.14000000,-0.27000000,0.03784069,0.05496815,-0.01097735,-11.26000000,-44.81000000,0.18000000
243,0,0.70600000,-0.13900000,0.69600000,-0.08000000,-0.19000000,0.12000000,0.03775962,0.05477561,-0.01085575,-11.26000000,-44.81000000,0.18000000
244,0,0.70100000,-0.13500000,0.69200000,-0.04000000,0.18000000,-0.04000000,0.03771915,0.05495772,-0.01089621,-11.26000000,-44.81000000,0.18000000
245,0,0.70300000,-0.13800000,0.70000000,0.10000000,0.18000000,-0.19000000,0.03782325,0.05514511,-0.01109401,-11.26000000,-44.81000000,0.18000000
246,0,0.70000000,-0.14200000,0.69700000,-0.00000000,-0.08000000,-0.08000000,0.03782325,0.05063645,-0.01560267,-11.25000000,-44.81000000,0.18000000
247,0,0.70100000,-0.13800000,0.69600000,-0.01000000,0.01000000,-0.03000000,0.03781240,0.05064730,-0.01563522,-11.25000000,-44.81000000,0.18000000
248,0,0.70200000,-0.14000000,0.69400000,-0.06000000,0.06000000,-0.17000000,0.03775108,0.05070862,-0.01580896,-11.25000000,-44.81000000,0.17000000
249,0,0.70200000,-0.13700000,0.69700000,0.03000000,0.04000000,-0.01000000,0.03778105,0.05074857,-0.01581894,-11.25000000,-44.81000000,0.17000000
250,0,0.70200000,-0.14000000,0.69300000,-0.03000000,0.04000000,-0.02000000,0.03775075,0.05078897,-0.01583914,-11.25000000,-44.81000000,0.17000000
251,0,0.70500000,-0.14000000,0.69500000,0.27000000,0.10000000,-0.03000000,0.03802043,0.05088886,-0.01586911,-11.25000000,-44.80000000,0.17000000
252,0,0.70800000,-0.13700000,0.69700000,0.00000000,0.10000000,0.00000000,0.03802043,0.05643513,-0.01586911,-11.25000000,-44.80000000,0.17000000
253,0,0.70400000,-0.13800000,0.70200000,-0.01000000,-0.15000000,-0.18000000,0.03800984,0.05627615,-0.01605989,-11.24000000,-44.80000000,0.17000000
254,0,0.70700000,-0.13700000,0.69900000,0.04000000,0.02000000,-0.01000000,0.03805362,0.05629804,-0.01607083,-11.25000000,-44.81000000,0.17000000
255,0,0.70500000,-0.13700000,0.69300000,0.06000000,0.22000000,-0.06000000,0.03811377,0.05651857,-0.01613098,-11.24000000,-44.80000000,0.17000000
256,0,0.70000000,-0.13800000,0.69700000,-0.01000000,0.01000000,0.14000000,0.03810368,0.05652866,-0.01598974,-11.25000000,-44.80000000,0.17000000
257,0,0.70500000,-0.13700000,0.69600000,0.22000000,0.05000000,-0.05000000,0.03833271,0.05658071,-0.01604179,-11.24000000,-44.80000000,0.17000000
258,0,0.70600000,-0.13500000,0.69200000,0.08000000,-0.04000000,-0.12000000,0.04277175,0.05436119,-0.02270035,-11.24000000,-44.80000000,0.17000000
259,0,0.70100000,-0.14200000,0.69500000,-0.07000000,0.01000000,-0.03000000,0.04269829,0.05437169,-0.02273183,-11.24000000,-44.80000000,0.17000000
260,0,0.70400000,-0.14000000,0.69600000,-0.03000000,0.09000000,-0.20000000,0.04266826,0.05446178,-0.02293203,-11.24000000,-44.80000000,0.17000000
261,0,0.70800000,-0.13800000,0.69500000,0.13000000,0.26000000,0.04000000,0.04279746,0.05472017,-0.02289227,-11.24000000,-44.80000000,0.17000000
262,0,0.69800000,-0.13600000,0.69400000,0.09000000,-0.23000000,-0.03000000,0.04288774,0.05448945,-0.02292237,-11.24000000,-44.80000000,0.17000000
263,0,0.70700000,-0.14100000,0.69400000,0.03000000,-0.18000000,-0.07000000,0.04291768,0.05430979,-0.02299224,-11.25000000,-44.80000000,0.17000000
264,0,0.71100000,-0.13800000,0.69400000,-0.28000000,-0.19000000,-0.22000000,0.02713011,0.04359679,-0.03539676,-11.25000000,-44.80000000,0.17000000
265,0,0.70300000,-0.14100000,0.69600000,-0.03000000,-0.13000000,0.08000000,0.02709643,0.04345086,-0.03530695,-11.25000000,-44.80000000,0.17000000
266,0,0.70000000,-0.13000000,0.69400000,-0.11000000,-0.20000000,-0.14000000,0.02698486,0.04324799,-0.03544896,-11.25000000,-44.80000000,0.17000000
267,0,0.70800000,-0.14100000,0.69500000,-0.09000000,-0.14000000,0.14000000,0.02689417,0.04310692,-0.03530789,-11.25000000,-44.80000000,0.18000000
268,0,0.69900000,-0.13800000,0.69400000,0.02000000,0.10000000,-0.01000000,0.02691411,0.04320664,-0.03531786,-11.25000000,-44.80000000,0.18000000
269,0,0.70200000,-0.14200000,0.69800000,-0.02000000,0.30000000,-0.00000000,0.02689412,0.04350643,-0.03531786,-11.25000000,-44.80000000,0.18000000
270,0,0.70500000,-0.14400000,0.69700000,-0.10000000,0.04000000,0.12000000,0.02135186,0.04572334,-0.02866714,-11.25000000,-44.80000000,0.18000000
271,0,0.70600000,-0.13100000,0.69400000,-0.03000000,-0.02000000,0.01000000,0.02132026,0.04570227,-0.02865661,-11.25000000,-44.80000000,0.18000000
272,0,0.70600000,-0.13900000,0.69600000,-0.09000000,0.10000000,-0.02000000,0.02122946,0.04580315,-0.02867678,-11.25000000,-44.80000000,0.18000000
273,0,0.70700000,-0.13700000,0.69100000,0.07000000,-0.21000000,0.03000000,0.02130247,0.04558413,-0.02864549,-11.25000000,-44.80000000,0.18000000
274,0,0.70600000,-0.14200000,0.69800000,-0.01000000,-0.14000000,-0.20000000,0.02129245,0.04544386,-0.02884588,-11.25000000,-44.80000000,0.17000000
275,0,0.70500000,-0.14000000,0.69400000,0.12000000,-0.10000000,-0.16000000,0.02141179,0.04534441,-0.02900501,-11.25000000,-44.80000000,0.18000000
276,0,0.70500000,-0.13600000,0.69300000,-0.16000000,0.07000000,0.09000000,0.01205337,0.04943872,-0.02374090,-11.25000000,-44.80000000,0.18000000
277,0,0.70400000,-0.13600000,0.69700000,0.35000000,0.25000000,-0.04000000,0.01242049,0.04970094,-0.02378285,-11.25000000,-44.80000000,0.18000000
278,0,0.70400000,-0.14000000,0.69500000,0.03000000,-0.13000000,-0.13000000,0.01245056,0.04957063,-0.02391317,-11.25000000,-44.80000000,0.18000000
279,0,0.70200000,-0.13800000,0.69700000,0.17000000,-0.09000000,-0.15000000,0.01261996,0.04948095,-0.02406263,-11.25000000,-44.80000000,0.18000000
280,0,0.70300000,-0.13800000,0.69700000,0.05000000,0.16000000,-0.18000000,0.01267031,0.04964210,-0.02424393,-11.25000000,-44.80000000,0.18000000
281,0,0.70400000,-0.14000000,0.69300000,-0.05000000,-0.04000000,0.13000000,0.01262036,0.04960214,-0.02411405,-11.25000000,-44.80000000,0.18000000
282,0,0.70900000,-0.13900000,0.69900000,-0.12000000,-0.16000000,0.10000000,0.01249876,0.04943999,-0.02401271,-11.25000000,-44.80000000,0.18000000
283,0,0.70900000,-0.14000000,0.69500000,0.04000000,0.06000000,-0.03000000,0.01476772,0.05284345,-0.02571443,-11.25000000,-44.80000000,0.18000000
284,0,0.70100000,-0.14100000,0.69400000,-0.16000000,-0.02000000,-0.01000000,0.01449206,0.05280899,-0.02573166,-11.26000000,-44.80000000,0.18000000
285,0,0.70300000,-0.13700000,0.69900000,-0.18000000,0.09000000,-0.15000000,0.01423866,0.05293568,-0.02594282,-11.26000000,-44.80000000,0.18000000
286,0,0.70000000,-0.13800000,0.69500000,0.09000000,0.01000000,-0.21000000,0.01436523,0.05294975,-0.02623814,-11.26000000,-44.80000000,0.18000000
287,0,0.70600000,-0.13900000,0.69700000,-0.13000000,0.16000000,0.15000000,0.01417934,0.05317853,-0.02602366,-11.26000000,-44.80000000,0.18000000
288,0,0.70300000,-0.14000000,0.69500000,0.00000000,0.22000000,-0.11000000,0.01417934,0.05354892,-0.02620885,-11.26000000,-44.80000000,0.18000000
289,0,0.70300000,-0.13300000,0.70200000,-0.05000000,-0.01000000,0.13000000,0.01152927,0.05301890,-0.01931866,-11.25000000,-44.80000000,0.18000000
290,0,0.70200000,-0.14000000,0.69600000,-0.09000000,-0.14000000,-0.09000000,0.01139959,0.05281718,-0.01944834,-11.25000000,-44.79000000,0.18000000
291,0,0.70200000,-0.13700000,0.69200000,-0.04000000,0.20000000,0.07000000,0.01134622,0.05308404,-0.01935493,-11.26000000,-44.79000000,0.18000000
292,0,0.70400000,-0.13800000,0.69800000,0.05000000,0.05000000,-0.10000000,0.01141426,0.05315208,-0.01949101,-11.26000000,-44.79000000,0.18000000
293,0,0.70700000,-0.13700000,0.69800000,0.02000000,-0.26000000,-0.03000000,0.01144132,0.05280032,-0.01953160,-11.25000000,-44.79000000,0.18000000
294,0,0.70300000,-0.13600000,0.69800000,-0.23000000,0.03000000,0.08000000,0.01103309,0.05285357,-0.01938961,-11.25000000,-44.79000000,0.18000000
295,0,0.70200000,-0.13700000,0.69700000,-0.08000000,-0.05000000,-0.04000000,0.00677136,0.05018999,-0.02152047,-11.25000000,-44.79000000,0.18000000
296,0,0.70700000,-0.13600000,0.70100000,-0.13000000,-0.16000000,0.05000000,0.00658513,0.04996079,-0.02144885,-11.25000000,-44.80000000,0.18000000
297,0,0.70200000,-0.14200000,0.69900000,0.00000000,-0.02000000,0.03000000,0.00658513,0.04993303,-0.02140721,-11.25000000,-44.79000000,0.18000000
298,0,0.70300000,-0.13900000,0.69800000,-0.09000000,0.17000000,-0.00000000,0.00646202,0.05016557,-0.02140721,-11.25000000,-44.79000000,0.18000000
299,0,0.70700000,-0.14100000,0.69600000,0.32000000,0.07000000,-0.10000000,0.00695415,0.05027323,-0.02156100,-11.25000000,-44.79000000,0.18000000
300,0,0.70900000,-0.13900000,0.70100000,0.07000000,-0.17000000,-0.11000000,0.00705534,0.05002747,-0.02172002,-11.25000000,-44.79000000,0.18000000
301,0,0.70100000,-0.13800000,0.69600000,-0.07000000,0.07000000,-0.10000000,0.00326011,0.05382271,-0.02714179,-11.25000000,-44.79000000,0.18000000
302,0,0.70200000,-0.13700000,0.69700000,-0.01000000,0.17000000,0.04000000,0.00324708,0.05404406,-0.02708970,-11.25000000,-44.79000000,0.18000000
303,0,0.70500000,-0.13800000,0.69400000,-0.02000000,-0.27000000,0.18000000,0.00322233,0.05370994,-0.02686695,-11.26000000,-44.79000000,0.18000000
304,0,0.70500000,-0.13700000,0.69500000,-0.04000000,0.07000000,0.07000000,0.00317307,0.05379615,-0.02678074,-11.26000000,-44.79000000,0.18000000
305,0,0.70300000,-0.13300000,0.69600000,-0.12000000,0.13000000,-0.20000000,0.00302289,0.05395885,-0.02703106,-11.26000000,-44.79000000,0.18000000
306,0,0.70400000,-0.13800000,0.69200000,0.17000000,-0.08000000,-0.03000000,0.00323910,0.05385710,-0.02706921,-11.26000000,-44.79000000,0.18000000
307,0,0.70400000,-0.13900000,0.69500000,0.07000000,0.10000000,-0.13000000,0.00704163,0.05928929,-0.03413105,-11.26000000,-44.79000000,0.18000000
308,0,0.71000000,-0.13600000,0.69800000,-0.06000000,-0.19000000,-0.09000000,0.00695835,0.05902558,-0.03425597,-11.25000000,-44.79000000,0.18000000
309,0,0.70900000,-0.13700000,0.69600000,0.21000000,-0.12000000,0.07000000,0.00722058,0.05887574,-0.03416856,-11.25000000,-44.80000000,0.18000000
310,0,0.71000000,-0.13700000,0.69700000,-0.03000000,0.06000000,0.07000000,0.00718397,0.05894896,-0.03408314,-11.25000000,-44.79000000,0.17000000
311,0,0.70400000,-0.14200000,0.69500000,-0.08000000,0.14000000,-0.22000000,0.00708524,0.05912174,-0.03435465,-11.25000000,-44.79000000,0.17000000
312,0,0.70500000,-0.14100000,0.69500000,-0.06000000,-0.01000000,0.28000000,0.00700940,0.05910910,-0.03400074,-11.25000000,-44.79000000,0.17000000
313,0,0.70600000,-0.14000000,0.69600000,0.10000000,0.03000000,0.26000000,0.01243896,0.06073797,-0.01988388,-11.25000000,-44.79000000,0.17000000
314,0,0.69800000,-0.13600000,0.69900000,-0.07000000,0.12000000,0.06000000,0.01233652,0.06091359,-0.01979606,-11.25000000,-44.79000000,0.17000000
315,0,0.70200000,-0.14200000,0.69800000,-0.28000000,0.28000000,-0.01000000,0.01183648,0.06141363,-0.01981392,-11.25000000,-44.79000000,0.17000000
316,0,0.70500000,-0.14300000,0.69700000,0.18000000,-0.19000000,-0.18000000,0.01212501,0.06110906,-0.02010246,-11.25000000,-44.79000000,0.18000000
317,0,0.70800000,-0.13800000,0.69600000,0.24000000,0.19000000,-0.07000000,0.01249451,0.06140158,-0.02021023,-11.25000000,-44.79000000,0.17000000
318,0,0.70300000,-0.14000000,0.70100000,0.12000000,-0.34000000,0.13000000,0.01280572,0.06051983,-0.01987309,-11.25000000,-44.79000000,0.17000000
319,0,0.70600000,-0.13600000,0.69400000,0.18000000,0.08000000,0.09000000,0.02228312,0.06473201,-0.01513439,-11.25000000,-44.79000000,0.17000000
320,0,0.70600000,-0.14100000,0.69800000,0.01000000,0.20000000,0.10000000,0.02229786,0.06502676,-0.01498702,-11.25000000,-44.79000000,0.17000000
321,0,0.70400000,-0.14100000,0.69500000,-0.23000000,-0.12000000,-0.06000000,0.02199382,0.06486814,-0.01506633,-11.25000000,-44.79000000,0.17000000
322,0,0.70500000,-0.13700000,0.69400000,0.10000000,-0.08000000,-0.24000000,0.02212489,0.06476328,-0.01538089,-11.25000000,-44.79000000,0.17000000
323,0,0.70600000,-0.13600000,0.69200000,0.27000000,-0.06000000,-0.19000000,0.02247774,0.06468487,-0.01562920,-11.25000000,-44.79000000,0.17000000
324,0,0.70400000,-0.13800000,0.69400000,-0.09000000,-0.01000000,-0.14000000,0.02235583,0.06467132,-0.01581884,-11.25000000,-44.79000000,0.17000000
325,0,0.70600000,-0.13200000,0.69800000,0.04000000,-0.19000000,0.06000000,0.02450218,0.05447619,-0.01259932,-11.25000000,-44.80000000,0.17000000
326,0,0.70400000,-0.13900000,0.69600000,-0.08000000,0.35000000,0.16000000,0.02438962,0.05496865,-0.01237420,-11.25000000,-44.80000000,0.17000000
327,0,0.70300000,-0.13900000,0.69200000,0.01000000,0.03000000,0.01000000,0.02440260,0.05500761,-0.01236121,-11.25000000,-44.80000000,0.17000000
328,0,0.70600000,-0.14000000,0.70100000,-0.03000000,-0.06000000,0.12000000,0.02436313,0.05492865,-0.01220330,-11.25000000,-44.80000000,0.17000000
329,0,0.70700000,-0.13900000,0.69200000,-0.04000000,0.19000000,-0.16000000,0.02430629,0.05519861,-0.01243064,-11.25000000,-44.80000000,0.17000000
330,0,0.70100000,-0.13800000,0.69600000,-0.21000000,-0.12000000,-0.21000000,0.02402058,0.05503535,-0.01271635,-11.25000000,-44.80000000,0.17000000
331,0,0.70200000,-0.13700000,0.69500000,-0.03000000,-0.06000000,-0.08000000,0.02240321,0.05180060,-0.01702935,-11.25000000,-44.80000000,0.17000000
332,0,0.70400000,-0.13900000,0.69200000,-0.01000000,0.10000000,-0.01000000,0.02238928,0.05193987,-0.01704327,-11.25000000,-44.80000000,0.17000000
333,0,0.69800000,-0.14000000,0.69600000,-0.32000000,0.04000000,0.15000000,0.02196475,0.05199294,-0.01684427,-11.25000000,-44.80000000,0.17000000
334,0,0.70100000,-0.13800000,0.69300000,-0.04000000,0.07000000,0.02000000,0.02191233,0.05208467,-0.01681806,-11.25000000,-44.80000000,0.17000000
335,0,0.70300000,-0.13500000,0.69700000,-0.13000000,-0.14000000,-0.19000000,0.02173878,0.05189777,-0.01707172,-11.25000000,-44.80000000,0.17000000
336,0,0.70300000,-0.13900000,0.69400000,-0.05000000,0.26000000,0.17000000,0.02166911,0.05226006,-0.01683483,-11.25000000,-44.80000000,0.17000000
337,0,0.70800000,-0.13800000,0.69500000,-0.13000000,0.04000000,0.33000000,0.01451084,0.05446260,0.00133615,-11.26000000,-44.80000000,0.17000000
338,0,0.70400000,-0.14100000,0.69400000,-0.08000000,0.11000000,-0.01000000,0.01438960,0.05462930,0.00132100,-11.26000000,-44.80000000,0.17000000
339,0,0.70700000,-0.13900000,0.70000000,-0.15000000,-0.02000000,-0.20000000,0.01418942,0.05460261,0.00105409,-11.26000000,-44.80000000,0.17000000
340,0,0.71000000,-0.13500000,0.69600000,-0.04000000,-0.07000000,-0.04000000,0.01413635,0.05450973,0.00100101,-11.26000000,-44.80000000,0.17000000
341,0,0.70400000,-0.13900000,0.69500000,0.04000000,-0.04000000,0.09000000,0.01418820,0.05445787,0.00111769,-11.26000000,-44.80000000,0.17000000
342,0,0.70700000,-0.14000000,0.68900000,-0.02000000,0.11000000,0.06000000,0.01415970,0.05461467,0.00120321,-11.26000000,-44.80000000,0.17000000
343,0,0.70500000,-0.13400000,0.69400000,-0.06000000,0.07000000,-0.01000000,0.01097290,0.05833260,0.00067208,-11.26000000,-44.80000000,0.17000000
344,0,0.70400000,-0.14500000,0.69300000,-0.12000000,-0.21000000,0.24000000,0.01081035,0.05804814,0.00099717,-11.26000000,-44.80000000,0.17000000
345,0,0.70300000,-0.13700000,0.69300000,0.01000000,-0.11000000,-0.08000000,0.01082345,0.05790404,0.00089237,-11.26000000,-44.80000000,0.17000000
346,0,0.70200000,-0.14300000,0.69500000,0.18000000,-0.24000000,-0.05000000,0.01106040,0.05758810,0.00082655,-11.26000000,-44.80000000,0.17000000
347,0,0.70400000,-0.13700000,0.69700000,-0.01000000,-0.08000000,0.04000000,0.01104715,0.05748205,0.00087958,-11.26000000,-44.80000000,0.17000000
348,0,0.70500000,-0.13700000,0.69600000,-0.03000000,0.04000000,0.03000000,0.01100660,0.05753611,0.00092012,-11.26000000,-44.80000000,0.17000000
349,0,0.70800000,-0.13900000,0.69500000,0.14000000,-0.11000000,-0.11000000,0.01858973,0.05157793,-0.00503805,-11.26000000,-44.80000000,0.17000000
350,0,0.70700000,-0.13700000,0.69400000,0.08000000,-0.05000000,-0.14000000,0.01870802,0.05150400,-0.00524505,-11.26000000,-44.80000000,0.17000000
351,0,0.70400000,-0.13900000,0.69900000,-0.06000000,0.16000000,-0.07000000,0.01862823,0.05171677,-0.00533813,-11.25000000,-44.80000000,0.17000000
352,0,0.70300000,-0.13600000,0.70000000,0.08000000,-0.11000000,0.10000000,0.01873801,0.05156582,-0.00520091,-11.25000000,-44.80000000,0.17000000
353,0,0.70200000,-0.14000000,0.69900000,-0.00000000,0.09000000,0.11000000,0.01873801,0.05168471,-0.00505561,-11.25000000,-44.80000000,0.17000000
354,0,0.70700000,-0.13500000,0.69500000,0.12000000,-0.05000000,0.06000000,0.01889643,0.05161870,-0.00497639,-11.25000000,-44.80000000,0.17000000
355,0,0.70900000,-0.13800000,0.69500000,0.03000000,0.11000000,-0.02000000,0.02053247,0.05761750,-0.00606708,-11.25000000,-44.80000000,0.17000000
356,0,0.70300000,-0.13800000,0.69900000,-0.08000000,-0.23000000,0.05000000,0.02042514,0.05730891,-0.00600000,-11.25000000,-44.80000000,0.17000000
357,0,0.70000000,-0.13900000,0.69600000,0.06000000,-0.17000000,0.12000000,0.02050858,0.05707247,-0.00583310,-11.25000000,-44.80000000,0.17000000
358,0,0.70300000,-0.13900000,0.69200000,-0.03000000,-0.27000000,0.10000000,0.02046802,0.05670739,-0.00569789,-11.25000000,-44.80000000,0.17000000
359,0,0.70900000,-0.14400000,0.69400000,0.12000000,0.08000000,-0.10000000,0.02061686,0.05680662,-0.00582192,-11.26000000,-44.80000000,0.17000000
360,0,0.70700000,-0.13200000,0.69600000,0.07000000,0.08000000,-0.26000000,0.02070647,0.05690903,-0.00615477,-11.25000000,-44.80000000,0.17000000
361,0,0.70500000,-0.13200000,0.69600000,0.11000000,0.22000000,-0.10000000,0.02662759,0.06875126,-0.01153760,-11.25000000,-44.80000000,0.17000000
362,0,0.70400000,-0.13900000,0.69600000,-0.26000000,-0.01000000,-0.03000000,0.02629450,0.06873845,-0.01157603,-11.25000000,-44.80000000,0.17000000
363,0,0.70600000,-0.13600000,0.69700000,0.25000000,0.18000000,0.06000000,0.02660423,0.06896146,-0.01150170,-11.25000000,-44.80000000,0.17000000
364,0,0.70800000,-0.14500000,0.69800000,0.15000000,0.01000000,0.05000000,0.02679068,0.06897389,-0.01143955,-11.25000000,-44.80000000,0.17000000
365,0,0.70700000,-0.13600000,0.69500000,-0.07000000,0.01000000,0.05000000,0.02670419,0.06898625,-0.01137777,-11.25000000,-44.80000000,0.17000000
366,0,0.71200000,-0.13500000,0.69600000,-0.05000000,0.13000000,-0.11000000,0.02664226,0.06914724,-0.01151400,-11.25000000,-44.80000000,0.17000000
367,0,0.70600000,-0.14100000,0.69800000,-0.21000000,0.01000000,-0.01000000,0.01520318,0.06969196,-0.01205872,-11.25000000,-44.80000000,0.17000000
368,0,0.69800000,-0.14000000,0.69500000,0.04000000,0.11000000,-0.07000000,0.01525407,0.06983192,-0.01214778,-11.25000000,-44.80000000,0.17000000
369,0,0.70500000,-0.14300000,0.70100000,0.29000000,0.14000000,0.18000000,0.01561184,0.07000463,-0.01192572,-11.25000000,-44.80000000,0.17000000
370,0,0.70500000,-0.13600000,0.69500000,0.14000000,-0.03000000,0.13000000,0.01578282,0.06996799,-0.01176695,-11.24000000,-44.80000000,0.17000000
371,0,0.70400000,-0.13700000,0.69300000,0.02000000,-0.06000000,0.11000000,0.01580714,0.06989503,-0.01163319,-11.24000000,-44.80000000,0.17000000
372,0,0.70700000,-0.13300000,0.69400000,-0.02000000,0.09000000,0.15000000,0.01578242,0.07000625,-0.01144781,-11.25000000,-44.80000000,0.17000000
373,0,0.70400000,-0.14100000,0.69200000,0.04000000,-0.21000000,0.00000000,0.01799211,0.05840540,-0.01144781,-11.25000000,-44.80000000,0.17000000
374,0,0.70800000,-0.14200000,0.69300000,0.07000000,0.05000000,-0.18000000,0.01809203,0.05847678,-0.01170476,-11.25000000,-44.80000000,0.17000000
375,0,0.70300000,-0.14100000,0.69700000,-0.07000000,-0.25000000,0.11000000,0.01799671,0.05813635,-0.01155498,-11.25000000,-44.80000000,0.17000000
376,0,0.70100000,-0.13300000,0.69500000,-0.01000000,-0.21000000,0.09000000,0.01798323,0.05785319,-0.01143362,-11.25000000,-44.80000000,0.17000000
377,0,0.70000000,-0.14300000,0.69600000,0.19000000,-0.08000000,0.08000000,0.01824707,0.05774210,-0.01132253,-11.25000000,-44.80000000,0.17000000
378,0,0.70300000,-0.13900000,0.69600000,-0.03000000,0.01000000,-0.07000000,0.01820507,0.05775610,-0.01142054,-11.24000000,-44.80000000,0.17000000
379,0,0.70400000,-0.13300000,0.69200000,0.11000000,0.13000000,-0.07000000,0.02411478,0.06474030,-0.01518126,-11.25000000,-44.80000000,0.17000000
380,0,0.70600000,-0.14100000,0.69400000,0.03000000,-0.01000000,-0.09000000,0.02415941,0.06472543,-0.01531515,-11.25000000,-44.80000000,0.17000000
381,0,0.70800000,-0.14100000,0.69500000,-0.24000000,-0.26000000,-0.03000000,0.02382796,0.06436636,-0.01535658,-11.25000000,-44.80000000,0.17000000
382,0,0.70500000,-0.13800000,0.69600000,-0.06000000,-0.04000000,0.19000000,0.02374477,0.06431090,-0.01509314,-11.25000000,-44.80000000,0.17000000
383,0,0.70000000,-0.14300000,0.69700000,-0.18000000,0.05000000,0.02000000,0.02349542,0.06438017,-0.01506543,-11.25000000,-44.80000000,0.17000000
384,0,0.70700000,-0.14100000,0.69200000,-0.03000000,-0.29000000,-0.07000000,0.02345371,0.06397697,-0.01516276,-11.25000000,-44.80000000,0.17000000
385,0,0.69900000,-0.13200000,0.69700000,0.09000000,0.18000000,0.05000000,0.02828970,0.07364895,-0.01247610,-11.25000000,-44.80000000,0.17000000
386,0,0.70700000,-0.13600000,0.69500000,-0.01000000,-0.13000000,0.16000000,0.02827427,0.07344844,-0.01222931,-11.25000000,-44.80000000,0.17000000
387,0,0.70500000,-0.13500000,0.70000000,-0.17000000,0.10000000,-0.04000000,0.02797992,0.07362159,-0.01229857,-11.25000000,-44.80000000,0.17000000
388,0,0.70500000,-0.13700000,0.69400000,0.13000000,-0.04000000,-0.12000000,0.02816119,0.07356581,-0.01246589,-11.25000000,-44.80000000,0.17000000
389,0,0.70800000,-0.13500000,0.69500000,0.05000000,0.09000000,-0.16000000,0.02823835,0.07370472,-0.01271283,-11.25000000,-44.80000000,0.17000000
390,0,0.70300000,-0.14300000,0.69300000,0.18000000,-0.10000000,-0.11000000,0.02849102,0.07356435,-0.01286724,-11.25000000,-44.80000000,0.17000000
391,0,0.70800000,-0.13800000,0.69600000,0.19000000,0.10000000,-0.05000000,0.03871854,0.07894725,-0.01555869,-11.25000000,-44.80000000,0.17000000
392,0,0.70100000,-0.13800000,0.69000000,0.12000000,0.16000000,-0.07000000,0.03891550,0.07920987,-0.01567359,-11.25000000,-44.80000000,0.17000000
393,0,0.70600000,-0.13200000,0.69400000,-0.23000000,0.11000000,0.16000000,0.03860423,0.07935874,-0.01545705,-11.25000000,-44.80000000,0.17000000
394,0,0.70600000,-0.13900000,0.69600000,0.27000000,0.19000000,-0.15000000,0.03897105,0.07961688,-0.01566084,-11.25000000,-44.80000000,0.17000000
395,0,0.70400000,-0.13700000,0.69400000,0.02000000,0.06000000,-0.00000000,0.03899914,0.07970113,-0.01566084,-11.25000000,-44.80000000,0.17000000
396,0,0.70100000,-0.14100000,0.69900000,0.08000000,-0.04000000,0.13000000,0.03911259,0.07964440,-0.01547647,-11.25000000,-44.80000000,0.17000000
397,0,0.70000000,-0.13700000,0.69700000,-0.14000000,0.03000000,-0.03000000,0.03165583,0.08124228,-0.01707435,-11.25000000,-44.80000000,0.17000000
398,0,0.70200000,-0.13600000,0.69800000,-0.15000000,-0.00000000,0.02000000,0.03144013,0.08124228,-0.01704559,-11.25000000,-44.80000000,0.17000000
399,0,0.70500000,-0.14300000,0.69700000,-0.13000000,-0.22000000,-0.02000000,0.03127052,0.08095524,-0.01707168,-11.25000000,-44.80000000,0.17000000
400,0,0.70700000,-0.14300000,0.69700000,-0.12000000,-0.04000000,-0.17000000,0.03111527,0.08090349,-0.01729162,-11.25000000,-44.80000000,0.18000000
401,0,0.70400000,-0.13900000,0.70000000,-0.08000000,-0.06000000,0.02000000,0.03101066,0.08082503,-0.01726547,-11.25000000,-44.80000000,0.18000000
402,0,0.70300000,-0.13700000,0.69800000,0.13000000,-0.08000000,0.11000000,0.03118278,0.08071911,-0.01711983,-11.25000000,-44.80000000,0.18000000
403,0,0.70400000,-0.13200000,0.69400000,-0.00000000,-0.02000000,0.13000000,0.03118278,0.08069136,-0.01693946,-11.25000000,-44.80000000,0.18000000
404,0,0.70700000,-0.13600000,0.69800000,0.27000000,-0.24000000,-0.01000000,0.04649670,0.06707899,-0.01750664,-11.25000000,-44.81000000,0.18000000
405,0,0.70700000,-0.13700000,0.69600000,0.13000000,0.18000000,0.19000000,0.04677102,0.06745881,-0.01710572,-11.25000000,-44.81000000,0.18000000
406,0,0.70400000,-0.13700000,0.69300000,0.11000000,-0.05000000,0.07000000,0.04692214,0.06739011,-0.01700955,-11.25000000,-44.81000000,0.18000000
407,0,0.70400000,-0.13600000,0.69400000,-0.04000000,0.16000000,0.02000000,0.04686972,0.06759979,-0.01698334,-11.25000000,-44.81000000,0.18000000
408,0,0.70200000,-0.13700000,0.69800000,0.10000000,-0.05000000,0.09000000,0.04699877,0.06753526,-0.01686720,-11.25000000,-44.81000000,0.18000000
409,0,0.71000000,-0.13900000,0.69500000,-0.16000000,-0.12000000,0.00000000,0.04676235,0.06735795,-0.01686720,-11.25000000,-44.81000000,0.18000000
410,0,0.71000000,-0.13400000,0.69400000,0.27000000,0.03000000,-0.01000000,0.06131892,0.06897535,-0.01740633,-11.25000000,-44.81000000,0.18000000
411,0,0.70300000,-0.13400000,0.69500000,-0.07000000,-0.06000000,-0.31000000,0.06120950,0.06888156,-0.01789092,-11.25000000,-44.81000000,0.18000000
412,0,0.69900000,-0.13500000,0.69800000,-0.13000000,-0.00000000,0.29000000,0.06102556,0.06888156,-0.01748060,-11.25000000,-44.81000000,0.18000000
413,0,0.70600000,-0.13800000,0.69600000,0.09000000,-0.25000000,-0.06000000,0.06115106,0.06853297,-0.01756426,-11.25000000,-44.81000000,0.18000000
414,0,0.70800000,-0.13300000,0.69700000,0.05000000,0.04000000,0.14000000,0.06121974,0.06858791,-0.01737196,-11.25000000,-44.81000000,0.18000000
415,0,0.70100000,-0.13600000,0.69500000,0.02000000,0.22000000,0.08000000,0.06125993,0.06903005,-0.01721118,-11.25000000,-44.81000000,0.18000000
416,0,0.70800000,-0.13500000,0.69400000,0.06000000,0.11000000,0.06000000,0.06447110,0.07491718,-0.01400002,-11.25000000,-44.81000000,0.18000000
417,0,0.70400000,-0.13900000,0.69700000,-0.12000000,0.16000000,0.06000000,0.06427765,0.07517511,-0.01390329,-11.25000000,-44.81000000,0.18000000
418,0,0.70600000,-0.14100000,0.69800000,-0.16000000,-0.12000000,-0.04000000,0.06401533,0.07497837,-0.01396887,-11.25000000,-44.81000000,0.18000000
419,0,0.70100000,-0.13500000,0.69200000,0.16000000,0.01000000,0.14000000,0.06424419,0.07499268,-0.01376862,-11.25000000,-44.81000000,0.18000000
420,0,0.70600000,-0.14100000,0.69400000,-0.02000000,-0.08000000,0.14000000,0.06421640,0.07488149,-0.01357404,-11.25000000,-44.81000000,0.18000000
421,0,0.70300000,-0.13900000,0.69000000,-0.01000000,0.17000000,0.02000000,0.06420191,0.07512782,-0.01354506,-11.25000000,-44.81000000,0.18000000
422,0,0.71000000,-0.13700000,0.69500000,0.14000000,-0.05000000,0.08000000,0.07155536,0.07250158,-0.00934309,-11.25000000,-44.81000000,0.18000000
423,0,0.70800000,-0.13900000,0.69500000,-0.19000000,0.17000000,-0.06000000,0.07129791,0.07273194,-0.00942439,-11.25000000,-44.81000000,0.18000000
424,0,0.70800000,-0.13600000,0.69600000,0.20000000,0.13000000,-0.16000000,0.07155914,0.07290174,-0.00963338,-11.25000000,-44.81000000,0.18000000
425,0,0.70300000,-0.13700000,0.69700000,-0.01000000,0.02000000,0.13000000,0.07154593,0.07292816,-0.00946162,-11.25000000,-44.81000000,0.18000000
426,0,0.71000000,-0.13800000,0.69600000,-0.12000000,-0.02000000,0.11000000,0.07138870,0.07290196,-0.00931750,-11.25000000,-44.81000000,0.18000000
427,0,0.70200000,-0.14000000,0.69300000,-0.15000000,0.06000000,-0.07000000,0.07119621,0.07297895,-0.00940733,-11.25000000,-44.81000000,0.18000000
428,0,0.70200000,-0.13800000,0.69300000,0.16000000,0.02000000,0.02000000,0.07995008,0.07407319,-0.00831309,-11.25000000,-44.81000000,0.18000000
429,0,0.70900000,-0.13700000,0.69600000,0.04000000,0.17000000,0.15000000,0.08000318,0.07429888,-0.00811395,-11.25000000,-44.81000000,0.18000000
430,0,0.70400000,-0.13600000,0.69300000,-0.18000000,0.04000000,-0.07000000,0.07977361,0.07434990,-0.00820323,-11.25000000,-44.81000000,0.18000000
431,0,0.70600000,-0.14100000,0.69900000,0.08000000,-0.01000000,-0.11000000,0.07987778,0.07433688,-0.00834646,-11.25000000,-44.81000000,0.18000000
432,0,0.70600000,-0.13900000,0.69700000,-0.20000000,-0.05000000,0.11000000,0.07962089,0.07427265,-0.00820517,-11.25000000,-44.81000000,0.18000000
433,0,0.70600000,-0.14000000,0.69300000,0.05000000,0.12000000,0.10000000,0.07968484,0.07442613,-0.00807727,-11.25000000,-44.81000000,0.18000000
434,0,0.70700000,-0.13900000,0.69300000,0.17000000,0.04000000,0.09000000,0.08888664,0.07659126,-0.00320573,-11.25000000,-44.81000000,0.18000000
435,0,0.69900000,-0.13400000,0.69800000,0.11000000,-0.02000000,-0.17000000,0.08904259,0.07656291,-0.00344674,-11.25000000,-44.81000000,0.18000000
436,0,0.70700000,-0.13800000,0.69900000,0.10000000,0.11000000,0.03000000,0.08917860,0.07671251,-0.00340594,-11.25000000,-44.81000000,0.18000000
437,0,0.70300000,-0.13800000,0.69500000,0.22000000,0.20000000,-0.06000000,0.08947933,0.07698590,-0.00348796,-11.25000000,-44.81000000,0.18000000
438,0,0.70800000,-0.13600000,0.69000000,0.10000000,0.14000000,0.19000000,0.08961550,0.07717654,-0.00322923,-11.25000000,-44.81000000,0.18000000
439,0,0.70400000,-0.13800000,0.69400000,0.10000000,0.14000000,-0.05000000,0.08975458,0.07737126,-0.00329877,-11.25000000,-44.81000000,0.18000000
440,0,0.70700000,-0.13600000,0.69500000,-0.03000000,-0.36000000,-0.09000000,0.08813805,0.05797297,-0.00814835,-11.25000000,-44.82000000,0.18000000
441,0,0.70600000,-0.13500000,0.69600000,0.09000000,0.06000000,0.06000000,0.08826531,0.05805780,-0.00806351,-11.25000000,-44.81000000,0.19000000
442,0,0.70400000,-0.14000000,0.69400000,-0.17000000,-0.19000000,-0.10000000,0.08802490,0.05778911,-0.00820493,-11.26000000,-44.82000000,0.19000000
443,0,0.70500000,-0.14400000,0.69700000,0.20000000,-0.06000000,-0.07000000,0.08829915,0.05770684,-0.00830091,-11.25000000,-44.82000000,0.19000000
444,0,0.70400000,-0.13700000,0.69700000,-0.05000000,0.14000000,0.20000000,0.08823050,0.05789905,-0.00802633,-11.25000000,-44.82000000,0.19000000
445,0,0.70200000,-0.13600000,0.69300000,0.22000000,0.14000000,0.22000000,0.08853207,0.05809095,-0.00772476,-11.25000000,-44.82000000,0.19000000
446,0,0.70800000,-0.13900000,0.69200000,0.10000000,-0.13000000,-0.18000000,0.09396824,0.05102394,-0.01750986,-11.25000000,-44.82000000,0.19000000
447,0,0.71000000,-0.13700000,0.69500000,-0.31000000,0.20000000,-0.09000000,0.09353222,0.05130524,-0.01763645,-11.25000000,-44.82000000,0.19000000
448,0,0.70500000,-0.14200000,0.69700000,0.13000000,0.04000000,-0.02000000,0.09371256,0.05136073,-0.01766420,-11.25000000,-44.82000000,0.19000000
449,0,0.70900000,-0.13700000,0.69400000,0.02000000,-0.05000000,-0.02000000,0.09374070,0.05129038,-0.01769234,-11.25000000,-44.82000000,0.19000000
450,0,0.70400000,-0.13800000,0.69400000,-0.07000000,-0.00000000,-0.03000000,0.09364409,0.05129038,-0.01773374,-11.25000000,-44.82000000,0.19000000
451,0,0.70600000,-0.13900000,0.69600000,-0.04000000,0.07000000,-0.05000000,0.09358869,0.05138734,-0.01780299,-11.26000000,-44.82000000,0.19000000
452,0,0.71000000,-0.14100000,0.69600000,0.14000000,-0.27000000,-0.08000000,0.10109675,0.03690750,-0.02209332,-11.26000000,-44.82000000,0.19000000
453,0,0.70500000,-0.13700000,0.69900000,-0.04000000,-0.02000000,-0.17000000,0.10103910,0.03687867,-0.02233834,-11.25000000,-44.82000000,0.18000000
454,0,0.70700000,-0.13200000,0.69200000,0.01000000,0.15000000,0.08000000,0.10105320,0.03709022,-0.02222552,-11.25000000,-44.82000000,0.18000000
455,0,0.70700000,-0.13900000,0.69800000,0.07000000,0.02000000,0.04000000,0.10114961,0.03711777,-0.02217043,-11.25000000,-44.82000000,0.18000000
456,0,0.70600000,-0.13600000,0.69800000,0.05000000,-0.04000000,-0.04000000,0.10121813,0.03706295,-0.02222525,-11.25000000,-44.82000000,0.18000000
457,0,0.70500000,-0.13700000,0.69300000,0.17000000,0.05000000,0.02000000,0.10148176,0.03714049,-0.02219423,-11.25000000,-44.82000000,0.18000000
458,0,0.69900000,-0.13800000,0.69500000,0.16000000,0.09000000,0.04000000,0.11006077,0.04196618,-0.02004948,-11.25000000,-44.82000000,0.18000000
459,0,0.70500000,-0.13900000,0.69200000,-0.01000000,0.13000000,0.06000000,0.11004595,0.04215882,-0.01996057,-11.25000000,-44.82000000,0.19000000
460,0,0.70500000,-0.13700000,0.69500000,0.01000000,0.06000000,0.02000000,0.11005984,0.04224214,-0.01993280,-11.25000000,-44.82000000,0.19000000
461,0,0.70800000,-0.13700000,0.69300000,-0.20000000,0.02000000,-0.02000000,0.10978687,0.04226943,-0.01996009,-11.25000000,-44.82000000,0.18000000
462,0,0.71100000,-0.14200000,0.69700000,0.05000000,0.05000000,0.07000000,0.10985507,0.04233763,-0.01986462,-11.25000000,-44.82000000,0.18000000
463,0,0.70600000,-0.13800000,0.69400000,0.08000000,-0.02000000,-0.07000000,0.11000940,0.04229904,-0.01999966,-11.25000000,-44.82000000,0.18000000
464,0,0.70000000,-0.13600000,0.69500000,-0.09000000,-0.19000000,-0.14000000,0.10516643,0.03207501,-0.02753316,-11.25000000,-44.82000000,0.18000000
465,0,0.70700000,-0.14300000,0.70300000,-0.18000000,-0.17000000,-0.02000000,0.10491249,0.03183517,-0.02756138,-11.25000000,-44.82000000,0.18000000
466,0,0.70500000,-0.13500000,0.69300000,-0.11000000,0.16000000,0.01000000,0.10476891,0.03204400,-0.02754833,-11.25000000,-44.82000000,0.18000000
467,0,0.70900000,-0.13700000,0.69900000,-0.20000000,-0.01000000,-0.09000000,0.10451140,0.03203113,-0.02766421,-11.25000000,-44.82000000,0.18000000
468,0,0.70500000,-0.13600000,0.69400000,0.24000000,0.10000000,-0.01000000,0.10482242,0.03216072,-0.02767717,-11.25000000,-44.82000000,0.18000000
469,0,0.70300000,-0.13300000,0.69500000,-0.04000000,0.15000000,-0.03000000,0.10477050,0.03235543,-0.02771611,-11.25000000,-44.82000000,0.18000000
470,0,0.69800000,-0.13900000,0.69700000,-0.29000000,0.09000000,-0.29000000,0.08915350,0.03720208,-0.04333310,-11.25000000,-44.82000000,0.18000000
471,0,0.70400000,-0.13800000,0.69300000,0.11000000,0.05000000,-0.01000000,0.08930515,0.03727101,-0.04334689,-11.25000000,-44.82000000,0.18000000
472,0,0.70200000,-0.13900000,0.69800000,0.05000000,0.03000000,-0.03000000,0.08938289,0.03731766,-0.04339353,-11.25000000,-44.82000000,0.18000000
473,0,0.70900000,-0.13700000,0.69600000,-0.05000000,-0.30000000,0.01000000,0.08931894,0.03693396,-0.04338074,-11.25000000,-44.82000000,0.18000000
474,0,0.70400000,-0.13800000,0.69400000,0.00000000,0.05000000,0.25000000,0.08931894,0.03699975,-0.04305182,-11.26000000,-44.82000000,0.18000000
475,0,0.70400000,-0.13800000,0.69400000,-0.13000000,-0.01000000,0.21000000,0.08912063,0.03698449,-0.04273146,-11.26000000,-44.82000000,0.19000000
476,0,0.69900000,-0.13900000,0.69800000,-0.08000000,0.03000000,-0.15000000,0.08476460,0.03861801,-0.05089902,-11.26000000,-44.82000000,0.19000000
477,0,0.70600000,-0.14100000,0.69700000,0.11000000,0.07000000,0.02000000,0.08490720,0.03870875,-0.05087309,-11.26000000,-44.82000000,0.19000000
478,0,0.70700000,-0.13600000,0.69700000,-0.26000000,0.20000000,0.07000000,0.08458279,0.03895830,-0.05078575,-11.26000000,-44.82000000,0.18000000
479,0,0.70100000,-0.14300000,0.69400000,0.05000000,-0.13000000,-0.15000000,0.08464590,0.03879420,-0.05097509,-11.26000000,-44.82000000,0.19000000
480,0,0.70200000,-0.13200000,0.69800000,0.10000000,0.04000000,-0.03000000,0.08477244,0.03884482,-0.05101306,-11.26000000,-44.82000000,0.18000000
481,0,0.71200000,-0.13700000,0.69800000,0.19000000,-0.07000000,-0.12000000,0.08500797,0.03875804,-0.05116181,-11.26000000,-44.82000000,0.18000000
482,0,0.71000000,-0.13600000,0.69900000,-0.19000000,0.00000000,-0.01000000,0.07468052,0.03875804,-0.05170536,-11.26000000,-44.82000000,0.18000000
483,0,0.70500000,-0.13900000,0.69400000,-0.14000000,-0.08000000,0.08000000,0.07448063,0.03864382,-0.05159114,-11.26000000,-44.82000000,0.18000000
484,0,0.71000000,-0.14000000,0.69500000,-0.07000000,-0.17000000,-0.10000000,0.07438550,0.03841278,-0.05172705,-11.26000000,-44.82000000,0.18000000
485,0,0.70600000,-0.13800000,0.69800000,-0.10000000,0.16000000,-0.19000000,0.07424949,0.03863039,-0.05198546,-11.26000000,-44.82000000,0.18000000
486,0,0.70700000,-0.14100000,0.69500000,0.06000000,0.04000000,0.24000000,0.07433148,0.03868505,-0.05165750,-11.26000000,-44.82000000,0.18000000
487,0,0.70300000,-0.13900000,0.69400000,0.17000000,0.05000000,0.13000000,0.07456354,0.03875330,-0.05148005,-11.26000000,-44.82000000,0.19000000
488,0,0.70100000,-0.14000000,0.69500000,0.09000000,-0.06000000,-0.14000000,0.07938953,0.03553597,-0.05898714,-11.26000000,-44.82000000,0.18000000
489,0,0.70300000,-0.13400000,0.69700000,-0.09000000,-0.03000000,0.02000000,0.07924945,0.03548928,-0.05895601,-11.26000000,-44.82000000,0.18000000
490,0,0.70400000,-0.13900000,0.69900000,0.06000000,0.04000000,-0.07000000,0.07933311,0.03554505,-0.05905362,-11.26000000,-44.82000000,0.18000000
491,0,0.70500000,-0.14000000,0.68900000,-0.10000000,-0.08000000,-0.13000000,0.07919670,0.03543592,-0.05923095,-11.26000000,-44.82000000,0.18000000
492,0,0.70800000,-0.14100000,0.69300000,0.18000000,-0.08000000,-0.03000000,0.07946820,0.03531526,-0.05927620,-11.26000000,-44.82000000,0.19000000
493,0,0.70800000,-0.13600000,0.69300000,0.01000000,-0.06000000,0.22000000,0.07948242,0.03522996,-0.05896346,-11.26000000,-44.82000000,0.19000000
494,0,0.70300000,-0.13600000,0.69700000,-0.20000000,-0.33000000,0.02000000,0.06876772,0.01755072,-0.05789199,-11.26000000,-44.82000000,0.19000000
495,0,0.70500000,-0.13900000,0.69900000,-0.02000000,-0.09000000,-0.22000000,0.06873958,0.01742409,-0.05820153,-11.26000000,-44.82000000,0.18000000
496,0,0.70600000,-0.14000000,0.69700000,-0.16000000,-0.20000000,-0.17000000,0.06851812,0.01714726,-0.05843683,-11.26000000,-44.82000000,0.18000000
497,0,0.70300000,-0.14200000,0.69400000,0.02000000,-0.17000000,-0.09000000,0.06854596,0.01691066,-0.05856209,-11.26000000,-44.82000000,0.19000000
498,0,0.70700000,-0.13600000,0.69900000,-0.16000000,-0.06000000,-0.09000000,0.06832690,0.01682852,-0.05868531,-11.26000000,-44.82000000,0.19000000
499,0,0.70500000,-0.14000000,0.69400000,0.06000000,0.13000000,-0.22000000,0.06840867,0.01700570,-0.05898515,-11.26000000,-44.82000000,0.18000000
500,0,0.70600000,-0.13700000,0.69500000,0.09000000,-0.14000000,-0.05000000,0.07329949,0.00939776,-0.06170227,-11.26000000,-44.82000000,0.18000000
501,0,0.70500000,-0.14300000,0.69700000,-0.00000000,-0.01000000,0.10000000,0.07329949,0.00938334,-0.06155801,-11.26000000,-44.82000000,0.18000000
502,0,0.70800000,-0.14100000,0.69600000,-0.08000000,0.20000000,0.27000000,0.07318891,0.00965978,-0.06118482,-11.26000000,-44.82000000,0.18000000
503,0,0.70600000,-0.14000000,0.69800000,0.04000000,-0.01000000,0.02000000,0.07324432,0.00964593,-0.06115711,-11.26000000,-44.82000000,0.19000000
504,0,0.70200000,-0.13600000,0.69300000,0.22000000,0.10000000,0.19000000,0.07354306,0.00978172,-0.06089911,-11.26000000,-44.82000000,0.19000000
505,0,0.70700000,-0.13800000,0.69700000,-0.08000000,0.32000000,-0.06000000,0.07342957,0.01023570,-0.06098423,-11.26000000,-44.82000000,0.19000000
506,0,0.70500000,-0.14200000,0.69800000,-0.12000000,-0.07000000,-0.06000000,0.06700149,0.00648599,-0.06419827,-11.26000000,-44.82000000,0.19000000
507,0,0.71200000,-0.13900000,0.69200000,0.22000000,0.25000000,-0.16000000,0.06731518,0.00684245,-0.06442640,-11.26000000,-44.82000000,0.18000000
508,0,0.70600000,-0.13700000,0.69700000,0.05000000,0.23000000,0.01000000,0.06738394,0.00715877,-0.06441265,-11.26000000,-44.82000000,0.18000000
509,0,0.70600000,-0.14200000,0.69700000,0.05000000,-0.08000000,0.02000000,0.06745345,0.00704756,-0.06438485,-11.26000000,-44.82000000,0.18000000
510,0,0.71100000,-0.13800000,0.69100000,-0.31000000,0.13000000,-0.22000000,0.06702341,0.00722790,-0.06469004,-11.26000000,-44.82000000,0.18000000
511,0,0.70800000,-0.14000000,0.69500000,0.06000000,-0.23000000,0.42000000,0.06710883,0.00690045,-0.06409208,-11.26000000,-44.82000000,0.18000000
512,0,0.70200000,-0.13800000,0.69600000,0.13000000,0.07000000,-0.05000000,0.07419606,0.01071665,-0.06681794,-11.26000000,-44.82000000,0.18000000
513,0,0.70600000,-0.14000000,0.70000000,0.15000000,0.19000000,0.05000000,0.07439921,0.01097397,-0.06675022,-11.26000000,-44.82000000,0.18000000
514,0,0.70400000,-0.13700000,0.69500000,0.12000000,-0.11000000,-0.25000000,0.07455678,0.01082953,-0.06707849,-11.26000000,-44.82000000,0.18000000
515,0,0.70500000,-0.13500000,0.69400000,0.14000000,0.21000000,0.06000000,0.07473910,0.01110303,-0.06700035,-11.26000000,-44.82000000,0.18000000
516,0,0.70500000,-0.13800000,0.69300000,-0.02000000,0.18000000,-0.07000000,0.07471284,0.01133938,-0.06709227,-11.25000000,-44.82000000,0.18000000
517,0,0.70100000,-0.13900000,0.69600000,-0.17000000,0.33000000,0.14000000,0.07443097,0.01188654,-0.06686014,-11.25000000,-44.82000000,0.18000000
518,0,0.70600000,-0.13700000,0.69500000,-0.13000000,-0.24000000,-0.19000000,0.06744885,-0.00100354,-0.07706478,-11.25000000,-44.82000000,0.18000000
519,0,0.70200000,-0.13800000,0.69500000,0.14000000,-0.22000000,0.15000000,0.06764119,-0.00130579,-0.07685870,-11.26000000,-44.82000000,0.18000000
520,0,0.70300000,-0.13500000,0.69500000,0.14000000,-0.01000000,0.18000000,0.06782762,-0.00131910,-0.07661900,-11.26000000,-44.82000000,0.18000000
521,0,0.70300000,-0.13500000,0.69300000,-0.07000000,-0.00000000,-0.16000000,0.06771007,-0.00131910,-0.07688769,-11.26000000,-44.82000000,0.18000000
522,0,0.70600000,-0.14200000,0.69600000,-0.07000000,-0.23000000,-0.20000000,0.06761071,-0.00164557,-0.07717157,-11.26000000,-44.82000000,0.18000000
523,0,0.70400000,-0.13600000,0.69300000,0.11000000,0.18000000,0.01000000,0.06776163,-0.00139862,-0.07715785,-11.26000000,-44.82000000,0.18000000
524,0,0.71200000,-0.13500000,0.69700000,0.01000000,0.18000000,-0.20000000,0.06832436,0.00873054,-0.08841247,-11.26000000,-44.82000000,0.18000000
525,0,0.70600000,-0.13700000,0.69800000,0.20000000,0.14000000,-0.13000000,0.06859589,0.00892061,-0.08858896,-11.26000000,-44.82000000,0.18000000
526,0,0.69900000,-0.14100000,0.69100000,0.07000000,-0.13000000,0.12000000,0.06868714,0.00875115,-0.08843254,-11.26000000,-44.82000000,0.18000000
527,0,0.70500000,-0.14500000,0.69600000,0.21000000,0.16000000,-0.04000000,0.06896033,0.00895930,-0.08848457,-11.25000000,-44.82000000,0.18000000
528,0,0.70600000,-0.13600000,0.69300000,0.35000000,0.29000000,-0.10000000,0.06941356,0.00933484,-0.08861407,-11.25000000,-44.82000000,0.18000000
529,0,0.70100000,-0.13300000,0.70500000,0.10000000,-0.07000000,-0.27000000,0.06962255,0.00918855,-0.08917833,-11.25000000,-44.82000000,0.18000000
530,0,0.69800000,-0.13300000,0.70300000,0.15000000,-0.22000000,-0.21000000,0.06986697,0.00883007,-0.08952051,-11.25000000,-44.81000000,0.18000000
531,0,0.70500000,-0.14400000,0.69300000,-0.06000000,-0.04000000,0.19000000,0.06667795,0.00670406,-0.07942196,-11.25000000,-44.81000000,0.18000000
532,0,0.70400000,-0.13700000,0.68900000,-0.12000000,0.11000000,0.05000000,0.06649935,0.00686777,-0.07934754,-11.24000000,-44.82000000,0.18000000
533,0,0.70400000,-0.13600000,0.69400000,0.12000000,0.07000000,-0.07000000,0.06666379,0.00696369,-0.07944346,-11.24000000,-44.82000000,0.18000000
534,0,0.70400000,-0.13900000,0.69600000,0.05000000,-0.06000000,0.07000000,0.06672911,0.00688531,-0.07935202,-11.24000000,-44.81000000,0.18000000
535,0,0.70500000,-0.13700000,0.69800000,0.30000000,0.07000000,-0.08000000,0.06715972,0.00698578,-0.07946685,-11.24000000,-44.82000000,0.17000000
536,0,0.71100000,-0.13300000,0.69200000,-0.07000000,-0.16000000,-0.20000000,0.06702864,0.00668616,-0.07984137,-11.24000000,-44.82000000,0.17000000
537,0,0.70900000,-0.14100000,0.69900000,-0.01000000,0.23000000,0.20000000,0.06649006,0.01907342,-0.06906984,-11.24000000,-44.82000000,0.17000000
538,0,0.70400000,-0.13900000,0.69900000,0.00000000,0.00000000,0.06000000,0.06649006,0.01907342,-0.06898641,-11.24000000,-44.82000000,0.17000000
539,0,0.70700000,-0.13800000,0.69700000,-0.11000000,0.02000000,0.27000000,0.06633710,0.01910124,-0.06861096,-11.24000000,-44.82000000,0.17000000
540,0,0.70600000,-0.13500000,0.69500000,0.04000000,-0.01000000,-0.18000000,0.06639034,0.01908793,-0.06885053,-11.24000000,-44.82000000,0.17000000
541,0,0.70500000,-0.14100000,0.69300000,-0.07000000,0.01000000,-0.25000000,0.06629939,0.01910092,-0.06917534,-11.24000000,-44.82000000,0.17000000
542,0,0.69800000,-0.13900000,0.69200000,-0.09000000,-0.11000000,-0.05000000,0.06617709,0.01895144,-0.06924328,-11.24000000,-44.82000000,0.17000000
543,0,0.70600000,-0.14000000,0.69700000,0.01000000,-0.12000000,-0.05000000,0.06671323,0.01251779,-0.07192397,-11.24000000,-44.82000000,0.17000000
544,0,0.70700000,-0.14200000,0.69400000,0.07000000,0.21000000,-0.12000000,0.06680368,0.01278913,-0.07207902,-11.24000000,-44.82000000,0.17000000
545,0,0.70800000,-0.13400000,0.69200000,-0.00000000,0.14000000,0.21000000,0.06680368,0.01296522,-0.07181489,-11.24000000,-44.82000000,0.17000000
546,0,0.70700000,-0.13300000,0.69600000,0.24000000,-0.17000000,0.01000000,0.06710085,0.01275472,-0.07180251,-11.24000000,-44.82000000,0.17000000
547,0,0.70800000,-0.13700000,0.69500000,0.01000000,0.03000000,-0.00000000,0.06711343,0.01279246,-0.07180251,-11.24000000,-44.82000000,0.17000000
548,0,0.70200000,-0.13600000,0.69600000,0.27000000,-0.02000000,-0.04000000,0.06747105,0.01276597,-0.07185549,-11.24000000,-44.82000000,0.17000000
549,0,0.70900000,-0.14000000,0.69500000,0.04000000,-0.18000000,0.22000000,0.06968150,0.00281895,-0.05969802,-11.24000000,-44.82000000,0.17000000
550,0,0.70400000,-0.14100000,0.69200000,-0.00000000,0.01000000,0.01000000,0.06968150,0.00283252,-0.05968445,-11.24000000,-44.82000000,0.17000000
551,0,0.70700000,-0.13800000,0.69600000,-0.01000000,-0.33000000,-0.32000000,0.06966897,0.00241911,-0.06008533,-11.24000000,-44.82000000,0.17000000
552,0,0.70200000,-0.13800000,0.69800000,0.15000000,-0.07000000,0.23000000,0.06985459,0.00233249,-0.05980070,-11.23000000,-44.82000000,0.17000000
553,0,0.70700000,-0.14200000,0.69900000,0.03000000,-0.17000000,-0.01000000,0.06989379,0.00211040,-0.05981377,-11.23000000,-44.82000000,0.17000000
554,0,0.71000000,-0.14000000,0.69500000,-0.35000000,0.00000000,-0.05000000,0.06943671,0.00211040,-0.05987906,-11.24000000,-44.82000000,0.17000000
555,0,0.71000000,-0.14100000,0.69500000,0.05000000,0.16000000,0.02000000,0.07214378,0.01077302,-0.05879624,-11.23000000,-44.83000000,0.17000000
556,0,0.70200000,-0.14200000,0.69300000,0.02000000,-0.03000000,0.13000000,0.07217239,0.01073012,-0.05861032,-11.23000000,-44.83000000,0.17000000
557,0,0.70600000,-0.13800000,0.69600000,-0.12000000,-0.20000000,-0.19000000,0.07201459,0.01046712,-0.05886016,-11.23000000,-44.83000000,0.17000000
558,0,0.70400000,-0.13600000,0.69700000,-0.18000000,-0.06000000,0.05000000,0.07177862,0.01038847,-0.05879462,-11.23000000,-44.83000000,0.17000000
559,0,0.70400000,-0.13500000,0.69700000,0.16000000,-0.25000000,0.38000000,0.07200020,0.01004226,-0.05826838,-11.23000000,-44.83000000,0.17000000
560,0,0.69900000,-0.13800000,0.69600000,-0.13000000,-0.08000000,0.07000000,0.07180975,0.00992506,-0.05816583,-11.23000000,-44.83000000,0.17000000
561,0,0.70700000,-0.13400000,0.69300000,0.17000000,0.16000000,0.05000000,0.08092348,0.01850269,-0.05548532,-11.23000000,-44.83000000,0.17000000
562,0,0.70500000,-0.14000000,0.69900000,0.03000000,-0.01000000,-0.12000000,0.08096408,0.01848916,-0.05564770,-11.24000000,-44.83000000,0.17000000
563,0,0.70800000,-0.13500000,0.69800000,0.00000000,-0.12000000,-0.04000000,0.08096408,0.01833874,-0.05569784,-11.24000000,-44.83000000,0.17000000
564,0,0.70500000,-0.14000000,0.69800000,-0.08000000,0.23000000,-0.18000000,0.08086512,0.01862326,-0.05592050,-11.24000000,-44.83000000,0.17000000
565,0,0.70100000,-0.13700000,0.69700000,0.05000000,0.17000000,0.19000000,0.08092740,0.01883501,-0.05568384,-11.24000000,-44.83000000,0.17000000
566,0,0.70700000,-0.13900000,0.69800000,0.14000000,0.10000000,-0.22000000,0.08111126,0.01896634,-0.05597277,-11.24000000,-44.83000000,0.17000000
567,0,0.71100000,-0.13800000,0.69500000,-0.12000000,-0.03000000,-0.06000000,0.07450120,0.01731383,-0.05927780,-11.23000000,-44.83000000,0.17000000
568,0,0.70200000,-0.14000000,0.69700000,0.12000000,-0.06000000,0.04000000,0.07467908,0.01722488,-0.05921850,-11.23000000,-44.83000000,0.17000000
569,0,0.70600000,-0.13400000,0.69800000,-0.01000000,-0.05000000,0.08000000,0.07466632,0.01716109,-0.05911643,-11.23000000,-44.83000000,0.17000000
570,0,0.70400000,-0.13800000,0.69700000,-0.07000000,-0.05000000,0.04000000,0.07457891,0.01709866,-0.05906648,-11.23000000,-44.83000000,0.17000000
571,0,0.70800000,-0.13900000,0.69700000,0.00000000,-0.14000000,-0.14000000,0.07457891,0.01692601,-0.05923913,-11.23000000,-44.83000000,0.17000000
572,0,0.71200000,-0.14000000,0.69800000,0.28000000,-0.01000000,0.02000000,0.07493382,0.01691333,-0.05921378,-11.24000000,-44.83000000,0.17000000
573,0,0.70600000,-0.14300000,0.69700000,0.22000000,0.01000000,-0.22000000,0.08686129,0.01745549,-0.07114125,-11.24000000,-44.82000000,0.17000000
574,0,0.70200000,-0.13700000,0.69800000,-0.07000000,-0.23000000,0.07000000,0.08675886,0.01711894,-0.07103882,-11.24000000,-44.82000000,0.17000000
575,0,0.70500000,-0.13800000,0.69800000,-0.16000000,0.15000000,-0.10000000,0.08653569,0.01732816,-0.07117831,-11.23000000,-44.82000000,0.17000000
576,0,0.70200000,-0.14200000,0.69400000,-0.07000000,0.10000000,-0.10000000,0.08643795,0.01746779,-0.07131794,-11.23000000,-44.82000000,0.17000000
577,0,0.70900000,-0.14000000,0.69700000,0.02000000,0.19000000,0.05000000,0.08646534,0.01772806,-0.07124945,-11.23000000,-44.82000000,0.17000000
578,0,0.70400000,-0.14000000,0.69500000,0.07000000,-0.04000000,-0.18000000,0.08656719,0.01766986,-0.07151133,-11.23000000,-44.82000000,0.16000000
579,0,0.70300000,-0.13900000,0.69800000,-0.18000000,0.10000000,0.09000000,0.07695362,0.02301073,-0.06670455,-11.23000000,-44.82000000,0.16000000
580,0,0.70900000,-0.14000000,0.69900000,-0.16000000,0.07000000,-0.10000000,0.07672598,0.02311032,-0.06684682,-11.23000000,-44.82000000,0.16000000
581,0,0.70900000,-0.13700000,0.69500000,-0.16000000,-0.01000000,0.02000000,0.07650418,0.02309646,-0.06681910,-11.23000000,-44.82000000,0.16000000
582,0,0.70700000,-0.13600000,0.69600000,-0.10000000,0.18000000,-0.18000000,0.07636462,0.02334766,-0.06707030,-11.23000000,-44.82000000,0.16000000
583,0,0.70200000,-0.13900000,0.69200000,-0.03000000,0.06000000,-0.16000000,0.07632336,0.02343018,-0.06729035,-11.23000000,-44.82000000,0.16000000
584,0,0.70100000,-0.13800000,0.69500000,-0.13000000,-0.26000000,-0.03000000,0.07613989,0.02306324,-0.06733269,-11.23000000,-44.82000000,0.16000000
585,0,0.70300000,-0.14000000,0.69600000,-0.02000000,-0.18000000,0.15000000,0.07504999,0.01325411,-0.05915841,-11.23000000,-44.82000000,0.16000000
586,0,0.70300000,-0.13800000,0.69800000,0.06000000,-0.10000000,0.13000000,0.07513415,0.01311384,-0.05897605,-11.23000000,-44.82000000,0.16000000
587,0,0.70200000,-0.13900000,0.69900000,0.25000000,-0.15000000,0.23000000,0.07548900,0.01290092,-0.05864959,-11.23000000,-44.82000000,0.16000000
588,0,0.70500000,-0.13800000,0.69600000,0.01000000,0.04000000,0.12000000,0.07550441,0.01296254,-0.05846475,-11.23000000,-44.82000000,0.17000000
589,0,0.70700000,-0.14100000,0.69700000,0.22000000,-0.01000000,-0.33000000,0.07582260,0.01294807,-0.05894205,-11.23000000,-44.82000000,0.16000000
590,0,0.70600000,-0.14200000,0.69900000,-0.25000000,-0.05000000,0.16000000,0.07547121,0.01287779,-0.05871716,-11.23000000,-44.82000000,0.17000000
591,0,0.70000000,-0.14300000,0.69700000,-0.06000000,0.04000000,0.13000000,0.07226984,0.01501203,-0.05178087,-11.23000000,-44.82000000,0.17000000
592,0,0.70000000,-0.13700000,0.69900000,0.03000000,0.24000000,0.18000000,0.07231180,0.01534766,-0.05152916,-11.23000000,-44.82000000,0.17000000
593,0,0.70200000,-0.13800000,0.69500000,0.07000000,-0.11000000,0.10000000,0.07240358,0.01520343,-0.05139804,-11.23000000,-44.82000000,0.17000000
594,0,0.70500000,-0.13800000,0.69700000,0.08000000,-0.15000000,0.02000000,0.07250988,0.01500411,-0.05137146,-11.23000000,-44.82000000,0.17000000
595,0,0.70600000,-0.13600000,0.69900000,0.04000000,0.11000000,0.06000000,0.07256190,0.01514716,-0.05129344,-11.24000000,-44.82000000,0.17000000
596,0,0.71400000,-0.13900000,0.69600000,-0.11000000,-0.16000000,0.02000000,0.07241390,0.01493188,-0.05126653,-11.24000000,-44.82000000,0.17000000
597,0,0.70500000,-0.13900000,0.69300000,0.00000000,-0.17000000,0.17000000,0.07241390,0.00575131,-0.04208596,-11.24000000,-44.82000000,0.17000000
598,0,0.69900000,-0.14000000,0.69600000,-0.07000000,-0.01000000,0.07000000,0.07230958,0.00573641,-0.04198164,-11.24000000,-44.82000000,0.17000000
599,0,0.70700000,-0.13200000,0.69600000,-0.02000000,-0.22000000,-0.01000000,0.07228293,0.00544323,-0.04199497,-11.24000000,-44.82000000,0.17000000
600,0,0.70500000,-0.13700000,0.70100000,-0.11000000,0.10000000,-0.02000000,0.07213765,0.00557530,-0.04202138,-11.23000000,-44.82000000,0.17000000
601,0,0.70100000,-0.13900000,0.69600000,-0.12000000,0.01000000,-0.09000000,0.07198240,0.00558824,-0.04213782,-11.24000000,-44.82000000,0.17000000
602,0,0.70300000,-0.13600000,0.69700000,-0.18000000,-0.23000000,0.28000000,0.07174296,0.00528228,-0.04176536,-11.24000000,-44.82000000,0.17000000
603,0,0.70700000,-0.13700000,0.69400000,-0.22000000,0.06000000,0.02000000,0.05974473,0.00855452,-0.04067461,-11.24000000,-44.83000000,0.17000000
604,0,0.70600000,-0.13800000,0.69600000,-0.04000000,-0.17000000,0.01000000,0.05969313,0.00833523,-0.04066171,-11.24000000,-44.83000000,0.17000000
605,0,0.70700000,-0.13800000,0.69500000,0.02000000,0.10000000,0.02000000,0.05971805,0.00845982,-0.04063679,-11.24000000,-44.83000000,0.17000000
606,0,0.70600000,-0.14000000,0.69900000,-0.01000000,-0.05000000,0.07000000,0.05970555,0.00839734,-0.04054932,-11.24000000,-44.83000000,0.17000000
607,0,0.70900000,-0.13400000,0.69600000,-0.11000000,-0.21000000,0.05000000,0.05956932,0.00813726,-0.04048739,-11.24000000,-44.83000000,0.17000000
608,0,0.70600000,-0.14100000,0.69400000,0.11000000,0.10000000,0.11000000,0.05970710,0.00826251,-0.04034962,-11.24000000,-44.83000000,0.17000000
609,0,0.70400000,-0.13900000,0.69600000,0.11000000,0.16000000,0.11000000,0.06567312,0.01694035,-0.03438360,-11.24000000,-44.82000000,0.17000000
610,0,0.70900000,-0.13400000,0.69400000,0.04000000,-0.10000000,0.04000000,0.06572369,0.01681391,-0.03433302,-11.24000000,-44.82000000,0.17000000
611,0,0.70700000,-0.14000000,0.69500000,0.07000000,0.11000000,-0.23000000,0.06581048,0.01695030,-0.03461819,-11.24000000,-44.82000000,0.17000000
612,0,0.70000000,-0.14400000,0.69500000,0.10000000,-0.13000000,-0.05000000,0.06593576,0.01678744,-0.03468083,-11.24000000,-44.82000000,0.17000000
613,0,0.70000000,-0.13900000,0.69400000,-0.24000000,-0.07000000,0.14000000,0.06563842,0.01670072,-0.03450738,-11.24000000,-44.82000000,0.17000000
614,0,0.70200000,-0.13500000,0.69100000,0.21000000,-0.12000000,-0.07000000,0.06589454,0.01655436,-0.03459276,-11.24000000,-44.82000000,0.17000000
615,0,0.70600000,-0.13800000,0.69300000,0.11000000,-0.05000000,0.08000000,0.07189297,0.01382780,-0.03023026,-11.24000000,-44.83000000,0.17000000
616,0,0.70900000,-0.14400000,0.69600000,0.02000000,0.13000000,-0.04000000,0.07192149,0.01401319,-0.03028730,-11.24000000,-44.83000000,0.17000000
617,0,0.70300000,-0.13900000,0.69600000,0.21000000,0.07000000,-0.06000000,0.07221461,0.01411090,-0.03037105,-11.24000000,-44.83000000,0.17000000
618,0,0.70600000,-0.13500000,0.69400000,-0.12000000,0.04000000,-0.04000000,0.07205060,0.01416557,-0.03042572,-11.24000000,-44.83000000,0.17000000
619,0,0.70000000,-0.13900000,0.69700000,-0.02000000,-0.12000000,0.17000000,0.07202329,0.01400168,-0.03019354,-11.24000000,-44.83000000,0.17000000
620,0,0.70500000,-0.14000000,0.69500000,0.07000000,0.23000000,-0.16000000,0.07212326,0.01433017,-0.03042206,-11.24000000,-44.82000000,0.17000000
621,0,0.70200000,-0.14100000,0.69700000,0.10000000,-0.07000000,0.06000000,0.07756709,0.01051949,-0.02715576,-11.24000000,-44.83000000,0.17000000
622,0,0.70600000,-0.14100000,0.69800000,0.05000000,0.12000000,0.04000000,0.07763901,0.01069211,-0.02709822,-11.24000000,-44.83000000,0.17000000
623,0,0.71000000,-0.13600000,0.69700000,-0.18000000,0.09000000,-0.08000000,0.07739141,0.01081591,-0.02720827,-11.24000000,-44.83000000,0.17000000
624,0,0.71100000,-0.13300000,0.69500000,-0.08000000,-0.07000000,0.11000000,0.07728219,0.01072034,-0.02705809,-11.24000000,-44.83000000,0.17000000
625,0,0.71200000,-0.13600000,0.69400000,-0.15000000,-0.19000000,-0.19000000,0.07707361,0.01045613,-0.02732229,-11.24000000,-44.83000000,0.17000000
626,0,0.70400000,-0.13900000,0.69200000,-0.17000000,-0.10000000,0.08000000,0.07682659,0.01031083,-0.02720605,-11.24000000,-44.83000000,0.17000000
627,0,0.70400000,-0.13900000,0.69700000,0.06000000,-0.08000000,-0.07000000,0.08004764,0.00601610,-0.03096394,-11.24000000,-44.83000000,0.17000000
628,0,0.69900000,-0.13600000,0.69500000,0.09000000,-0.02000000,-0.08000000,0.08018465,0.00598565,-0.03108573,-11.24000000,-44.83000000,0.17000000
629,0,0.70600000,-0.13800000,0.69700000,-0.10000000,0.13000000,-0.03000000,0.08003985,0.00617390,-0.03112917,-11.24000000,-44.83000000,0.17000000
630,0,0.70700000,-0.13800000,0.69400000,-0.08000000,-0.03000000,0.23000000,0.07992937,0.00613247,-0.03081153,-11.24000000,-44.83000000,0.17000000
631,0,0.71000000,-0.14100000,0.69600000,0.04000000,0.22000000,0.06000000,0.08002015,0.00663173,-0.03067537,-11.24000000,-44.83000000,0.17000000
632,0,0.70300000,-0.13700000,0.69500000,0.21000000,-0.02000000,-0.16000000,0.08033459,0.00660178,-0.03091495,-11.24000000,-44.83000000,0.17000000
633,0,0.71200000,-0.13900000,0.69500000,-0.01000000,0.04000000,-0.19000000,0.07981128,0.00869504,-0.04085795,-11.24000000,-44.83000000,0.17000000
634,0,0.70400000,-0.14700000,0.69800000,0.02000000,-0.02000000,0.03000000,0.07983877,0.00866755,-0.04081671,-11.24000000,-44.83000000,0.17000000
635,0,0.70400000,-0.13700000,0.69300000,-0.14000000,0.15000000,0.25000000,0.07965504,0.00886440,-0.04048862,-11.25000000,-44.83000000,0.17000000
636,0,0.70800000,-0.13600000,0.69600000,0.08000000,-0.17000000,-0.22000000,0.07975972,0.00864195,-0.04077650,-11.25000000,-44.83000000,0.17000000
637,0,0.70700000,-0.13900000,0.69400000,0.01000000,0.24000000,-0.22000000,0.07977316,0.00896441,-0.04107209,-11.24000000,-44.83000000,0.17000000
638,0,0.70500000,-0.14100000,0.69900000,-0.01000000,-0.01000000,-0.05000000,0.07975977,0.00895102,-0.04113904,-11.24000000,-44.83000000,0.17000000
639,0,0.70300000,-0.13700000,0.69700000,0.12000000,-0.19000000,0.04000000,0.08633455,-0.00145905,-0.03894745,-11.24000000,-44.83000000,0.17000000
640,0,0.70500000,-0.14100000,0.69600000,-0.06000000,-0.48000000,0.00000000,0.08625245,-0.00211588,-0.03894745,-11.25000000,-44.83000000,0.17000000
641,0,0.70800000,-0.13800000,0.69400000,-0.25000000,0.10000000,-0.01000000,0.08592740,-0.00198586,-0.03896045,-11.24000000,-44.83000000,0.17000000
642,0,0.70300000,-0.13600000,0.69700000,-0.09000000,-0.12000000,0.02000000,0.08581122,-0.00214077,-0.03893463,-11.24000000,-44.83000000,0.17000000
643,0,0.70800000,-0.13500000,0.69800000,0.06000000,0.00000000,-0.19000000,0.08588953,-0.00214077,-0.03918262,-11.24000000,-44.83000000,0.17000000
644,0,0.70500000,-0.13600000,0.69600000,-0.02000000,-0.17000000,-0.00000000,0.08586261,-0.00236958,-0.03918262,-11.24000000,-44.83000000,0.17000000
645,0,0.70400000,-0.13800000,0.69800000,-0.13000000,0.04000000,0.00000000,0.07883778,-0.00020810,-0.03918262,-11.24000000,-44.83000000,0.17000000
646,0,0.70300000,-0.13800000,0.69100000,-0.08000000,0.03000000,0.18000000,0.07870811,-0.00015947,-0.03889086,-11.24000000,-44.83000000,0.17000000
647,0,0.70600000,-0.14100000,0.69900000,0.10000000,0.09000000,-0.10000000,0.07885107,-0.00003080,-0.03903383,-11.24000000,-44.83000000,0.17000000
648,0,0.71000000,-0.13800000,0.69900000,-0.16000000,-0.13000000,0.14000000,0.07863171,-0.00020903,-0.03884189,-11.24000000,-44.83000000,0.17000000
649,0,0.70400000,-0.14200000,0.69500000,-0.11000000,0.01000000,0.04000000,0.07847183,-0.00019450,-0.03878375,-11.24000000,-44.83000000,0.17000000
650,0,0.70500000,-0.13800000,0.69700000,-0.16000000,0.02000000,-0.03000000,0.07821871,-0.00016286,-0.03883121,-11.24000000,-44.83000000,0.17000000
651,0,0.69700000,-0.13800000,0.69400000,-0.10000000,0.02000000,0.26000000,0.07807362,-0.00013384,-0.03845398,-11.25000000,-44.83000000,0.17000000
652,0,0.70600000,-0.13800000,0.69600000,0.27000000,0.04000000,0.18000000,0.09314858,0.00209949,-0.02840400,-11.24000000,-44.83000000,0.17000000
653,0,0.70600000,-0.13300000,0.69300000,-0.15000000,-0.14000000,-0.14000000,0.09294915,0.00191336,-0.02859014,-11.24000000,-44.83000000,0.17000000
654,0,0.70600000,-0.14000000,0.69600000,-0.01000000,-0.03000000,0.09000000,0.09293675,0.00187614,-0.02847848,-11.25000000,-44.83000000,0.18000000
655,0,0.70400000,-0.13800000,0.69300000,0.01000000,0.32000000,0.07000000,0.09295294,0.00239436,-0.02836512,-11.25000000,-44.83000000,0.18000000
656,0,0.70600000,-0.13600000,0.70000000,0.01000000,-0.13000000,0.22000000,0.09296856,0.00219130,-0.02802149,-11.25000000,-44.83000000,0.18000000
657,0,0.70600000,-0.14000000,0.69900000,-0.06000000,-0.03000000,-0.07000000,0.09289099,0.00215252,-0.02811198,-11.25000000,-44.83000000,0.17000000
658,0,0.70700000,-0.13700000,0.69600000,-0.06000000,-0.18000000,0.13000000,0.08962652,-0.00764091,-0.02103895,-11.24000000,-44.83000000,0.17000000
659,0,0.70300000,-0.13700000,0.69600000,0.16000000,-0.12000000,-0.19000000,0.08983573,-0.00779782,-0.02128739,-11.24000000,-44.83000000,0.17000000
660,0,0.70600000,-0.13000000,0.69700000,0.30000000,0.15000000,0.08000000,0.09021199,-0.00760969,-0.02118706,-11.24000000,-44.83000000,0.17000000
661,0,0.70100000,-0.13900000,0.69500000,0.06000000,0.01000000,-0.23000000,0.09028697,-0.00759720,-0.02147448,-11.24000000,-44.83000000,0.17000000
662,0,0.71000000,-0.13600000,0.69600000,0.12000000,0.16000000,0.11000000,0.09043518,-0.00739958,-0.02133862,-11.24000000,-44.83000000,0.17000000
663,0,0.71000000,-0.14000000,0.69500000,-0.03000000,0.22000000,-0.13000000,0.09039723,-0.00712130,-0.02150305,-11.24000000,-44.83000000,0.17000000
664,0,0.70900000,-0.13400000,0.69200000,-0.03000000,-0.05000000,-0.17000000,0.08875995,-0.00985010,-0.03078098,-11.24000000,-44.83000000,0.17000000
665,0,0.70700000,-0.14000000,0.69500000,-0.06000000,0.10000000,-0.33000000,0.08867459,-0.00970783,-0.03125048,-11.24000000,-44.83000000,0.17000000
666,0,0.70200000,-0.13500000,0.69700000,0.13000000,-0.43000000,-0.02000000,0.08884482,-0.01027091,-0.03127667,-11.24000000,-44.83000000,0.17000000
667,0,0.70500000,-0.13500000,0.70100000,-0.14000000,-0.08000000,0.06000000,0.08865869,-0.01037727,-0.03119690,-11.24000000,-44.83000000,0.17000000
668,0,0.70700000,-0.13800000,0.70000000,0.12000000,-0.02000000,-0.01000000,0.08882058,-0.01040425,-0.03121039,-11.24000000,-44.83000000,0.17000000
669,0,0.70200000,-0.13400000,0.69200000,-0.12000000,-0.14000000,0.38000000,0.08865188,-0.01060107,-0.03067618,-11.24000000,-44.83000000,0.17000000
670,0,0.70500000,-0.14000000,0.69800000,-0.06000000,-0.24000000,-0.15000000,0.08543507,-0.02346831,-0.03871821,-11.25000000,-44.83000000,0.17000000
671,0,0.70600000,-0.13600000,0.69700000,0.09000000,-0.27000000,-0.04000000,0.08560624,-0.02398185,-0.03879429,-11.25000000,-44.83000000,0.17000000
672,0,0.70200000,-0.13600000,0.69500000,0.11000000,0.04000000,-0.08000000,0.08575268,-0.02392860,-0.03890079,-11.25000000,-44.83000000,0.17000000
673,0,0.70200000,-0.13800000,0.69600000,-0.12000000,-0.07000000,-0.13000000,0.08559531,-0.02402040,-0.03907127,-11.25000000,-44.83000000,0.17000000
674,0,0.70800000,-0.13500000,0.69500000,0.11000000,0.26000000,0.14000000,0.08574544,-0.02366555,-0.03888019,-11.25000000,-44.83000000,0.17000000
675,0,0.70100000,-0.13600000,0.69600000,0.17000000,-0.39000000,-0.13000000,0.08603882,-0.02433860,-0.03910455,-11.25000000,-44.83000000,0.17000000
676,0,0.70600000,-0.14000000,0.69200000,-0.05000000,0.06000000,0.20000000,0.08335130,-0.02111358,-0.02835447,-11.25000000,-44.83000000,0.18000000
677,0,0.70400000,-0.13800000,0.69900000,-0.11000000,-0.24000000,-0.01000000,0.08319684,-0.02145057,-0.02836851,-11.25000000,-44.83000000,0.18000000
678,0,0.70400000,-0.13700000,0.69700000,0.17000000,-0.06000000,-0.00000000,0.08342931,-0.02153262,-0.02836851,-11.25000000,-44.83000000,0.18000000
679,0,0.70800000,-0.13800000,0.69500000,0.02000000,-0.02000000,0.13000000,0.08345531,-0.02155862,-0.02819952,-11.25000000,-44.83000000,0.18000000
680,0,0.71000000,-0.13900000,0.69600000,0.04000000,0.06000000,-0.02000000,0.08350820,-0.02147927,-0.02822596,-11.25000000,-44.83000000,0.18000000
681,0,0.70200000,-0.13600000,0.69500000,0.15000000,-0.14000000,0.04000000,0.08372476,-0.02168140,-0.02816821,-11.25000000,-44.83000000,0.18000000
682,0,0.70600000,-0.13600000,0.69300000,0.07000000,0.04000000,0.14000000,0.08748046,-0.01953528,-0.02065681,-11.25000000,-44.83000000,0.18000000
683,0,0.70600000,-0.14300000,0.69600000,-0.03000000,-0.11000000,-0.02000000,0.08744082,-0.01968064,-0.02068324,-11.25000000,-44.83000000,0.18000000
684,0,0.70300000,-0.13700000,0.69200000,-0.27000000,0.10000000,0.09000000,0.08709388,-0.01955214,-0.02056760,-11.25000000,-44.83000000,0.18000000
685,0,0.70500000,-0.13500000,0.69600000,0.07000000,0.11000000,-0.03000000,0.08718365,-0.01941109,-0.02060607,-11.25000000,-44.83000000,0.18000000
686,0,0.70100000,-0.14000000,0.69700000,-0.03000000,-0.02000000,-0.11000000,0.08714578,-0.01943633,-0.02074492,-11.25000000,-44.83000000,0.18000000
687,0,0.70200000,-0.14100000,0.69500000,-0.05000000,-0.02000000,-0.09000000,0.08708174,-0.01946195,-0.02086018,-11.25000000,-44.83000000,0.18000000
688,0,0.70500000,-0.13300000,0.69600000,-0.27000000,-0.04000000,-0.05000000,0.07241806,-0.02163435,-0.02357567,-11.25000000,-44.83000000,0.18000000
689,0,0.70900000,-0.13500000,0.69000000,0.00000000,0.04000000,0.06000000,0.07241806,-0.02158293,-0.02349855,-11.25000000,-44.83000000,0.18000000
690,0,0.70100000,-0.13400000,0.69600000,0.05000000,-0.09000000,0.19000000,0.07247978,-0.02169402,-0.02326401,-11.25000000,-44.83000000,0.18000000
691,0,0.70800000,-0.13600000,0.69800000,-0.37000000,-0.20000000,0.16000000,0.07202111,-0.02194195,-0.02306567,-11.25000000,-44.83000000,0.18000000
692,0,0.70300000,-0.14400000,0.69700000,-0.12000000,-0.02000000,0.14000000,0.07187350,-0.02196655,-0.02289346,-11.25000000,-44.83000000,0.18000000
693,0,0.70500000,-0.14300000,0.69400000,-0.23000000,-0.08000000,-0.08000000,0.07157188,-0.02207147,-0.02299837,-11.25000000,-44.83000000,0.18000000
694,0,0.70300000,-0.13600000,0.69300000,-0.11000000,-0.01000000,-0.10000000,0.06550206,-0.02262327,-0.02851639,-11.25000000,-44.83000000,0.18000000
695,0,0.70400000,-0.13900000,0.69600000,-0.05000000,0.15000000,0.23000000,0.06543135,-0.02241114,-0.02819113,-11.25000000,-44.83000000,0.18000000
696,0,0.70500000,-0.13900000,0.69300000,0.01000000,0.15000000,-0.08000000,0.06544476,-0.02221003,-0.02829839,-11.25000000,-44.83000000,0.18000000
697,0,0.70300000,-0.13600000,0.69600000,0.06000000,0.04000000,-0.11000000,0.06552277,-0.02215803,-0.02844141,-11.25000000,-44.83000000,0.18000000
698,0,0.70500000,-0.13700000,0.69500000,0.28000000,-0.06000000,-0.20000000,0.06589931,-0.02223871,-0.02871037,-11.25000000,-44.83000000,0.18000000
699,0,0.70900000,-0.14100000,0.69600000,-0.21000000,-0.12000000,-0.06000000,0.06560999,-0.02240404,-0.02879303,-11.25000000,-44.83000000,0.18000000
700,0,0.70600000,-0.13900000,0.69300000,-0.00000000,0.01000000,0.02000000,0.06560999,-0.02186597,-0.02771689,-11.25000000,-44.83000000,0.17000000
701,0,0.70100000,-0.14000000,0.69200000,0.05000000,0.15000000,-0.00000000,0.06567968,-0.02165692,-0.02771689,-11.24000000,-44.83000000,0.17000000
702,0,0.70500000,-0.14400000,0.69400000,-0.02000000,-0.04000000,-0.05000000,0.06565274,-0.02171080,-0.02778424,-11.24000000,-44.83000000,0.17000000
703,0,0.70200000,-0.13600000,0.69800000,0.05000000,-0.17000000,-0.15000000,0.06571981,-0.02193884,-0.02798545,-11.24000000,-44.83000000,0.17000000
704,0,0.70500000,-0.13400000,0.69500000,-0.42000000,0.03000000,0.24000000,0.06509963,-0.02189454,-0.02763106,-11.24000000,-44.83000000,0.17000000
705,0,0.70200000,-0.13800000,0.69600000,-0.14000000,-0.51000000,0.11000000,0.06489577,-0.02263717,-0.02747089,-11.24000000,-44.83000000,0.17000000
706,0,0.70400000,-0.14000000,0.69700000,-0.04000000,0.22000000,-0.17000000,0.06274901,-0.01083002,-0.03659459,-11.24000000,-44.83000000,0.17000000
707,0,0.69800000,-0.13800000,0.69200000,-0.10000000,-0.07000000,-0.06000000,0.06260805,-0.01092870,-0.03667917,-11.24000000,-44.83000000,0.17000000
708,0,0.71000000,-0.13900000,0.69400000,-0.03000000,0.28000000,0.13000000,0.06256867,-0.01056117,-0.03650853,-11.24000000,-44.83000000,0.17000000
709,0,0.70600000,-0.13700000,0.69300000,-0.05000000,-0.02000000,-0.21000000,0.06250351,-0.01058723,-0.03678222,-11.24000000,-44.83000000,0.17000000
710,0,0.70100000,-0.14400000,0.69500000,-0.14000000,-0.11000000,0.13000000,0.06232098,-0.01073065,-0.03661273,-11.24000000,-44.83000000,0.17000000
711,0,0.70300000,-0.14100000,0.69900000,-0.06000000,-0.20000000,-0.04000000,0.06221991,-0.01106756,-0.03668012,-11.24000000,-44.83000000,0.17000000
712,0,0.70700000,-0.14200000,0.69700000,-0.00000000,0.10000000,-0.26000000,0.06221991,-0.00562638,-0.05082717,-11.24000000,-44.83000000,0.17000000
713,0,0.70200000,-0.13800000,0.69600000,0.12000000,0.08000000,0.14000000,0.06239007,-0.00551294,-0.05062865,-11.24000000,-44.83000000,0.17000000
714,0,0.70200000,-0.14200000,0.69600000,0.09000000,-0.11000000,-0.04000000,0.06250972,-0.00565919,-0.05068183,-11.24000000,-44.83000000,0.17000000
715,0,0.70600000,-0.13700000,0.70000000,0.05000000,-0.00000000,-0.04000000,0.06257662,-0.00565919,-0.05073535,-11.24000000,-44.83000000,0.17000000
716,0,0.70700000,-0.14000000,0.69800000,0.06000000,-0.35000000,0.09000000,0.06265662,-0.00612586,-0.05061535,-11.24000000,-44.83000000,0.17000000
717,0,0.70700000,-0.13900000,0.69600000,0.13000000,-0.03000000,0.28000000,0.06290263,-0.00618263,-0.05008547,-11.24000000,-44.83000000,0.17000000
718,0,0.70600000,-0.13600000,0.70200000,0.16000000,0.17000000,-0.07000000,0.07141015,0.00285660,-0.05380751,-11.24000000,-44.83000000,0.17000000
719,0,0.70300000,-0.13500000,0.69400000,-0.03000000,0.10000000,0.14000000,0.07136733,0.00299933,-0.05360769,-11.24000000,-44.83000000,0.17000000
720,0,0.70500000,-0.13900000,0.69700000,0.21000000,-0.20000000,0.14000000,0.07164703,0.00273295,-0.05342122,-11.24000000,-44.83000000,0.17000000
721,0,0.70200000,-0.13800000,0.69100000,-0.13000000,0.14000000,-0.04000000,0.07147890,0.00291401,-0.05347295,-11.24000000,-44.83000000,0.17000000
722,0,0.70500000,-0.13300000,0.69700000,-0.36000000,0.08000000,-0.06000000,0.07100757,0.00301875,-0.05355151,-11.24000000,-44.83000000,0.17000000
723,0,0.70300000,-0.13900000,0.69700000,-0.07000000,0.03000000,0.07000000,0.07090240,0.00306382,-0.05344634,-11.24000000,-44.83000000,0.17000000
724,0,0.70200000,-0.14400000,0.69600000,-0.01000000,0.04000000,-0.25000000,0.07036318,0.00522070,-0.06692685,-11.24000000,-44.82000000,0.17000000
725,0,0.70800000,-0.14200000,0.69600000,-0.15000000,-0.14000000,-0.09000000,0.07015768,0.00502890,-0.06705016,-11.24000000,-44.83000000,0.17000000
726,0,0.70300000,-0.13500000,0.70100000,0.20000000,-0.02000000,0.11000000,0.07041190,0.00500347,-0.06691033,-11.24000000,-44.83000000,0.17000000
727,0,0.70700000,-0.14200000,0.69300000,-0.04000000,-0.11000000,0.14000000,0.07036223,0.00486688,-0.06673648,-11.24000000,-44.82000000,0.17000000
728,0,0.70100000,-0.13700000,0.69800000,0.06000000,0.11000000,-0.32000000,0.07043736,0.00500463,-0.06713721,-11.24000000,-44.82000000,0.17000000
729,0,0.70500000,-0.13800000,0.69500000,-0.06000000,-0.07000000,0.03000000,0.07036168,0.00491633,-0.06709937,-11.24000000,-44.82000000,0.17000000
730,0,0.70100000,-0.13900000,0.69400000,-0.14000000,-0.08000000,0.26000000,0.06267878,0.00052611,-0.05283113,-11.24000000,-44.82000000,0.17000000
731,0,0.69800000,-0.13500000,0.69800000,-0.01000000,-0.31000000,0.22000000,0.06266585,0.00012533,-0.05254671,-11.24000000,-44.82000000,0.17000000
732,0,0.70200000,-0.14100000,0.69500000,0.20000000,0.04000000,-0.23000000,0.06302441,0.00019705,-0.05295905,-11.24000000,-44.82000000,0.17000000
733,0,0.70100000,-0.13600000,0.69600000,0.18000000,-0.05000000,0.14000000,0.06327956,0.00012617,-0.05276060,-11.24000000,-44.82000000,0.17000000
734,0,0.70600000,-0.13600000,0.69700000,-0.14000000,0.27000000,-0.07000000,0.06310381,0.00046512,-0.05284847,-11.24000000,-44.82000000,0.17000000
735,0,0.71500000,-0.13500000,0.69800000,-0.10000000,0.03000000,-0.03000000,0.06290646,0.00052433,-0.05290768,-11.24000000,-44.82000000,0.17000000
736,0,0.70700000,-0.13600000,0.69800000,0.03000000,0.31000000,-0.11000000,0.06449253,0.01691377,-0.05872329,-11.24000000,-44.82000000,0.17000000
737,0,0.70300000,-0.13500000,0.69500000,-0.06000000,0.19000000,0.04000000,0.06440754,0.01718292,-0.05866663,-11.24000000,-44.82000000,0.17000000
738,0,0.70500000,-0.13900000,0.69800000,0.17000000,-0.18000000,0.03000000,0.06463944,0.01693738,-0.05862570,-11.24000000,-44.82000000,0.17000000
739,0,0.70700000,-0.13900000,0.69600000,0.04000000,0.27000000,-0.35000000,0.06469873,0.01733762,-0.05914453,-11.24000000,-44.82000000,0.17000000
740,0,0.70500000,-0.13500000,0.69800000,-0.00000000,-0.19000000,0.06000000,0.06469873,0.01705062,-0.05905390,-11.24000000,-44.82000000,0.17000000
741,0,0.70500000,-0.13900000,0.69400000,-0.27000000,-0.16000000,0.20000000,0.06428465,0.01680525,-0.05874718,-11.24000000,-44.82000000,0.17000000
742,0,0.70200000,-0.14300000,0.69700000,0.04000000,-0.07000000,0.00000000,0.06642805,0.01305430,-0.05874718,-11.24000000,-44.82000000,0.17000000
743,0,0.70200000,-0.14000000,0.69600000,-0.01000000,-0.37000000,-0.28000000,0.06641306,0.01249957,-0.05916697,-11.24000000,-44.82000000,0.17000000
744,0,0.70800000,-0.14300000,0.69600000,-0.07000000,0.02000000,-0.08000000,0.06631502,0.01252758,-0.05927902,-11.24000000,-44.82000000,0.17000000
745,0,0.70500000,-0.14100000,0.69200000,-0.02000000,-0.05000000,0.01000000,0.06628760,0.01245904,-0.05926531,-11.24000000,-44.82000000,0.17000000
746,0,0.70500000,-0.13600000,0.69800000,0.24000000,0.29000000,0.06000000,0.06661218,0.01285124,-0.05918417,-11.24000000,-44.82000000,0.17000000
747,0,0.70300000,-0.13500000,0.69300000,-0.09000000,-0.02000000,0.11000000,0.06649027,0.01282415,-0.05903517,-11.24000000,-44.82000000,0.17000000
748,0,0.70300000,-0.14200000,0.69100000,-0.10000000,0.04000000,0.19000000,0.06107654,0.01498964,-0.04874907,-11.24000000,-44.82000000,0.17000000
749,0,0.70500000,-0.14000000,0.69600000,-0.11000000,-0.15000000,0.05000000,0.06092077,0.01477723,-0.04867827,-11.24000000,-44.82000000,0.17000000
750,0,0.70200000,-0.13700000,0.69900000,-0.06000000,0.04000000,0.07000000,0.06083917,0.01483163,-0.04858307,-11.24000000,-44.82000000,0.17000000
751,0,0.70500000,-0.13800000,0.69600000,-0.16000000,0.02000000,0.17000000,0.06060546,0.01486085,-0.04833476,-11.24000000,-44.82000000,0.17000000
752,0,0.70900000,-0.13400000,0.69400000,0.13000000,0.03000000,-0.11000000,0.06079544,0.01490469,-0.04849551,-11.24000000,-44.82000000,0.17000000
753,0,0.70400000,-0.13900000,0.69500000,-0.31000000,0.13000000,-0.09000000,0.06030125,0.01511193,-0.04863898,-11.24000000,-44.82000000,0.17000000
754,0,0.70600000,-0.13500000,0.69500000,0.01000000,-0.04000000,-0.03000000,0.06083366,0.01298230,-0.05023621,-11.24000000,-44.82000000,0.17000000
755,0,0.70000000,-0.13600000,0.69800000,0.07000000,0.08000000,0.00000000,0.06092941,0.01309173,-0.05023621,-11.24000000,-44.82000000,0.17000000
756,0,0.70500000,-0.14300000,0.69900000,-0.17000000,-0.13000000,-0.02000000,0.06070793,0.01292236,-0.05026226,-11.24000000,-44.82000000,0.17000000
757,0,0.70200000,-0.14200000,0.69800000,-0.23000000,-0.07000000,0.02000000,0.06040867,0.01283128,-0.05023624,-11.24000000,-44.82000000,0.17000000
758,0,0.70400000,-0.13300000,0.69400000,0.17000000,0.13000000,-0.13000000,0.06062739,0.01299854,-0.05040350,-11.24000000,-44.82000000,0.17000000
759,0,0.70500000,-0.14000000,0.69400000,0.04000000,-0.04000000,0.10000000,0.06067907,0.01294686,-0.05027429,-11.24000000,-44.82000000,0.17000000
760,0,0.70200000,-0.14000000,0.69400000,-0.12000000,0.12000000,-0.02000000,0.05407582,0.01955011,-0.05137483,-11.24000000,-44.82000000,0.17000000
761,0,0.70500000,-0.14000000,0.69700000,-0.09000000,-0.05000000,-0.08000000,0.05394011,0.01947472,-0.05149546,-11.24000000,-44.82000000,0.17000000
762,0,0.70900000,-0.13700000,0.69800000,-0.08000000,-0.35000000,0.16000000,0.05383089,0.01899687,-0.05127702,-11.25000000,-44.82000000,0.17000000
763,0,0.71100000,-0.14100000,0.70200000,-0.01000000,-0.21000000,0.07000000,0.05381782,0.01872247,-0.05118555,-11.24000000,-44.82000000,0.17000000
764,0,0.70600000,-0.13700000,0.69700000,0.07000000,-0.17000000,0.05000000,0.05391188,0.01849406,-0.05111837,-11.24000000,-44.82000000,0.17000000
765,0,0.70300000,-0.13900000,0.69600000,-0.26000000,-0.05000000,-0.17000000,0.05355101,0.01842466,-0.05135432,-11.25000000,-44.82000000,0.17000000
766,0,0.69900000,-0.13900000,0.69900000,-0.23000000,0.04000000,-0.12000000,0.04122423,0.02056845,-0.05778568,-11.24000000,-44.82000000,0.17000000
767,0,0.70500000,-0.13500000,0.70000000,0.06000000,0.07000000,0.22000000,0.04130422,0.02066177,-0.05749240,-11.25000000,-44.82000000,0.17000000
768,0,0.70400000,-0.14300000,0.69300000,0.21000000,0.16000000,-0.13000000,0.04157746,0.02086995,-0.05766155,-11.25000000,-44.82000000,0.17000000
769,0,0.70500000,-0.14000000,0.69800000,-0.15000000,-0.14000000,-0.23000000,0.04138354,0.02068896,-0.05795890,-11.25000000,-44.82000000,0.17000000
770,0,0.70300000,-0.13700000,0.69700000,0.08000000,-0.11000000,-0.13000000,0.04148674,0.02054707,-0.05812659,-11.25000000,-44.82000000,0.17000000
771,0,0.70400000,-0.14000000,0.69400000,0.00000000,0.09000000,0.15000000,0.04148674,0.02066436,-0.05793110,-11.25000000,-44.82000000,0.17000000
772,0,0.70700000,-0.13700000,0.69700000,0.03000000,-0.08000000,0.29000000,0.04319798,0.01610104,-0.04138906,-11.25000000,-44.82000000,0.17000000
773,0,0.70500000,-0.13600000,0.69600000,0.20000000,0.09000000,-0.22000000,0.04346870,0.01622287,-0.04168685,-11.25000000,-44.82000000,0.17000000
774,0,0.70700000,-0.14000000,0.69700000,0.14000000,-0.12000000,0.10000000,0.04364869,0.01606859,-0.04155829,-11.24000000,-44.83000000,0.17000000
775,0,0.70700000,-0.13400000,0.70100000,0.09000000,-0.23000000,-0.20000000,0.04376663,0.01576718,-0.04182038,-11.24000000,-44.83000000,0.17000000
776,0,0.70000000,-0.14000000,0.69600000,-0.18000000,0.03000000,-0.01000000,0.04353213,0.01580627,-0.04183340,-11.24000000,-44.83000000,0.17000000
777,0,0.69900000,-0.13800000,0.69300000,-0.10000000,0.19000000,0.18000000,0.04338546,0.01608493,-0.04156941,-11.24000000,-44.83000000,0.17000000
778,0,0.70300000,-0.13500000,0.69700000,0.14000000,-0.11000000,-0.06000000,0.04357000,0.01593994,-0.04164850,-11.24000000,-44.83000000,0.17000000
779,0,0.71300000,-0.13400000,0.69800000,-0.04000000,0.12000000,-0.30000000,0.04140983,0.02242042,-0.05784972,-11.24000000,-44.83000000,0.17000000
780,0,0.70200000,-0.13800000,0.69700000,0.03000000,0.11000000,-0.05000000,0.04144987,0.02256722,-0.05791644,-11.24000000,-44.83000000,0.17000000
781,0,0.70800000,-0.13600000,0.69300000,0.17000000,-0.04000000,0.03000000,0.04167224,0.02251490,-0.05787720,-11.24000000,-44.83000000,0.17000000
782,0,0.70400000,-0.13700000,0.69700000,0.04000000,0.08000000,0.02000000,0.04172394,0.02261831,-0.05785135,-11.24000000,-44.83000000,0.17000000
783,0,0.70800000,-0.14100000,0.69800000,0.08000000,0.05000000,0.13000000,0.04182678,0.02268258,-0.05768424,-11.24000000,-44.83000000,0.17000000
784,0,0.70800000,-0.13600000,0.69600000,0.11000000,0.22000000,-0.14000000,0.04197636,0.02298173,-0.05787462,-11.24000000,-44.83000000,0.17000000
785,0,0.70500000,-0.14400000,0.70200000,0.03000000,0.20000000,-0.18000000,0.04362005,0.03393971,-0.06773680,-11.24000000,-44.83000000,0.17000000
786,0,0.70100000,-0.13900000,0.70100000,-0.37000000,-0.02000000,0.00000000,0.04308861,0.03391098,-0.06773680,-11.24000000,-44.82000000,0.17000000
787,0,0.70400000,-0.13800000,0.69600000,0.01000000,0.04000000,-0.18000000,0.04310234,0.03396593,-0.06798405,-11.24000000,-44.82000000,0.17000000
788,0,0.70200000,-0.14000000,0.69400000,-0.04000000,-0.00000000,0.06000000,0.04304757,0.03396593,-0.06790189,-11.24000000,-44.82000000,0.17000000
789,0,0.70300000,-0.13900000,0.69700000,-0.02000000,0.17000000,0.10000000,0.04301977,0.03420220,-0.06776291,-11.24000000,-44.82000000,0.17000000
790,0,0.70300000,-0.14000000,0.69300000,-0.04000000,-0.03000000,0.07000000,0.04296458,0.03416081,-0.06766632,-11.24000000,-44.82000000,0.17000000
791,0,0.70100000,-0.13300000,0.69900000,0.05000000,-0.08000000,0.14000000,0.04564495,0.02987222,-0.06016129,-11.24000000,-44.82000000,0.17000000
792,0,0.70500000,-0.13800000,0.69600000,-0.04000000,-0.00000000,-0.06000000,0.04558665,0.02987222,-0.06024873,-11.24000000,-44.82000000,0.17000000
793,0,0.70700000,-0.14200000,0.69700000,-0.02000000,0.09000000,0.28000000,0.04555467,0.03001615,-0.05980096,-11.24000000,-44.82000000,0.17000000
794,0,0.70800000,-0.13900000,0.69400000,0.07000000,-0.06000000,0.03000000,0.04566139,0.02992467,-0.05975522,-11.24000000,-44.82000000,0.17000000
795,0,0.70200000,-0.13900000,0.70100000,-0.05000000,0.10000000,-0.19000000,0.04558822,0.03007100,-0.06003325,-11.24000000,-44.82000000,0.17000000
796,0,0.70300000,-0.14000000,0.69600000,-0.06000000,0.09000000,-0.24000000,0.04550084,0.03020207,-0.06038277,-11.24000000,-44.82000000,0.17000000
797,0,0.70400000,-0.14000000,0.69600000,-0.25000000,0.04000000,-0.05000000,0.03217471,0.03233426,-0.06304800,-11.24000000,-44.82000000,0.17000000
798,0,0.70500000,-0.13600000,0.69500000,0.05000000,0.11000000,-0.03000000,0.03225032,0.03250059,-0.06309337,-11.24000000,-44.82000000,0.17000000
799,0,0.70500000,-0.13900000,0.69600000,-0.07000000,0.29000000,-0.03000000,0.03214742,0.03292688,-0.06313746,-11.24000000,-44.82000000,0.17000000
800,0,0.70000000,-0.14200000,0.69400000,0.06000000,0.07000000,-0.01000000,0.03223163,0.03302512,-0.06315150,-11.24000000,-44.82000000,0.17000000
801,0,0.70200000,-0.13800000,0.69600000,0.00000000,-0.02000000,-0.01000000,0.03223163,0.03299726,-0.06316543,-11.24000000,-44.82000000,0.17000000
802,0,0.70300000,-0.13800000,0.69400000,-0.12000000,-0.05000000,0.10000000,0.03206155,0.03292639,-0.06302370,-11.24000000,-44.82000000,0.17000000
803,0,0.70200000,-0.13700000,0.70100000,-0.11000000,0.00000000,0.03000000,0.02612719,0.03292639,-0.06140524,-11.24000000,-44.82000000,0.17000000
804,0,0.70300000,-0.13400000,0.69500000,0.18000000,-0.18000000,-0.14000000,0.02635745,0.03269613,-0.06158433,-11.24000000,-44.82000000,0.17000000
805,0,0.70400000,-0.13900000,0.69700000,0.17000000,0.13000000,-0.19000000,0.02657605,0.03286330,-0.06182865,-11.24000000,-44.82000000,0.17000000
806,0,0.70900000,-0.13600000,0.69200000,-0.14000000,-0.10000000,0.00000000,0.02640033,0.03273779,-0.06182865,-11.24000000,-44.82000000,0.17000000
807,0,0.70100000,-0.13800000,0.69700000,0.04000000,0.01000000,0.19000000,0.02645080,0.03275040,-0.06158895,-11.23000000,-44.82000000,0.17000000
808,0,0.70100000,-0.14000000,0.69500000,-0.19000000,-0.08000000,0.17000000,0.02621146,0.03264963,-0.06137481,-11.24000000,-44.82000000,0.17000000
809,0,0.71100000,-0.13600000,0.69500000,-0.29000000,0.02000000,0.04000000,0.00888557,0.03384452,-0.05898503,-11.24000000,-44.82000000,0.17000000
810,0,0.70700000,-0.13300000,0.69800000,-0.10000000,-0.09000000,0.09000000,0.00875028,0.03372276,-0.05886327,-11.24000000,-44.82000000,0.17000000
811,0,0.70400000,-0.13900000,0.69600000,-0.16000000,-0.11000000,-0.17000000,0.00854381,0.03358081,-0.05908264,-11.24000000,-44.82000000,0.17000000
812,0,0.70300000,-0.14100000,0.69500000,0.03000000,0.15000000,0.09000000,0.00858364,0.03377995,-0.05896316,-11.24000000,-44.82000000,0.17000000
813,0,0.70300000,-0.13900000,0.69500000,-0.14000000,-0.04000000,0.11000000,0.00839881,0.03372714,-0.05881793,-11.24000000,-44.82000000,0.17000000
814,0,0.70100000,-0.13500000,0.69400000,-0.20000000,0.14000000,-0.16000000,0.00741088,0.03441870,-0.05960828,-11.24000000,-44.82000000,0.17000000
815,0,0.70800000,-0.14000000,0.69200000,-0.09000000,0.06000000,0.04000000,0.00327808,0.03717390,-0.05777148,-11.24000000,-44.82000000,0.17000000
816,0,0.70400000,-0.13900000,0.69400000,-0.10000000,-0.23000000,0.06000000,0.00315869,0.03689931,-0.05769985,-11.24000000,-44.82000000,0.17000000
817,0,0.70400000,-0.13200000,0.69100000,0.03000000,-0.02000000,-0.17000000,0.00324816,0.03683966,-0.05820683,-11.24000000,-44.82000000,0.17000000
818,0,0.70800000,-0.14100000,0.69800000,-0.06000000,-0.27000000,-0.16000000,0.00309025,0.03612909,-0.05862791,-11.24000000,-44.82000000,0.17000000
819,0,0.70700000,-0.14400000,0.69300000,0.13000000,-0.05000000,-0.28000000,0.00325838,0.03606442,-0.05899003,-11.24000000,-44.82000000,0.17000000
820,0,0.70600000,-0.13900000,0.69700000,-0.11000000,-0.06000000,0.16000000,0.00312634,0.03599240,-0.05879798,-11.24000000,-44.83000000,0.17000000
821,0,0.70900000,-0.14200000,0.69700000,0.05000000,-0.17000000,0.14000000,0.00570228,0.02723421,-0.05158535,-11.24000000,-44.82000000,0.17000000
822,0,0.70600000,-0.14200000,0.69600000,0.08000000,-0.22000000,-0.05000000,0.00585362,0.02681803,-0.05167994,-11.24000000,-44.82000000,0.17000000
823,0,0.69900000,-0.13800000,0.69400000,0.09000000,0.14000000,-0.01000000,0.00598175,0.02701735,-0.05169417,-11.24000000,-44.82000000,0.17000000
824,0,0.70400000,-0.13900000,0.69200000,-0.10000000,-0.14000000,0.07000000,0.00583342,0.02680969,-0.05159034,-11.24000000,-44.82000000,0.17000000
