Measurement Count,IMU_MODE,Accel_X,Accel_Y,Accel_Z,Gyro_X,Gyro_Y,Gyro_Z,X_DEL_ANG,Y_DEL_ANG,Z_DEL_ANG,ROLL,PITCH,HEADING
1,0,0.75000000,0.01800000,0.65800000,0.00000000,-0.22000000,-0.19000000,0.00000000,-0.00022200,-0.00019173,1.63000000,-48.71000000,0.03000000
2,0,0.75300000,0.02100000,0.65700000,0.10000000,0.03000000,0.01000000,0.00010322,-0.00019103,-0.00018140,1.87000000,-48.76000000,-0.15000000
3,0,0.75000000,0.02600000,0.66200000,0.01000000,-0.07000000,0.10000000,0.00011567,-0.00027816,-0.00005694,1.83000000,-48.72000000,-0.12000000
4,0,0.75000000,0.02300000,0.66500000,-0.10000000,-0.10000000,0.22000000,-0.00000451,-0.00039833,0.00020744,1.90000000,-48.68000000,-0.17000000
5,0,0.75200000,0.02200000,0.65900000,-0.06000000,0.32000000,0.17000000,-0.00007665,-0.00001355,0.00041186,1.93000000,-48.71000000,-0.19000000
6,0,0.75200000,0.02400000,0.66000000,-0.12000000,-0.08000000,0.23000000,-0.00021911,-0.00010852,0.00068491,1.96000000,-48.73000000,-0.22000000
7,0,0.75700000,0.02400000,0.65700000,-0.02000000,0.14000000,-0.06000000,-0.00024341,0.00006152,0.00061203,1.95000000,-48.77000000,-0.21000000
8,0,0.75600000,0.02500000,0.65800000,0.03000000,0.12000000,0.04000000,-0.00020302,0.00022307,0.00066588,1.96000000,-48.78000000,-0.22000000
9,0,0.75400000,0.02400000,0.65500000,0.17000000,-0.19000000,0.01000000,0.00003188,-0.00003946,0.00067970,1.96000000,-48.78000000,-0.22000000
10,0,0.75200000,0.02400000,0.65500000,0.26000000,0.09000000,-0.24000000,0.00035926,0.00007386,0.00037749,1.97000000,-48.78000000,-0.22000000
11,0,0.75500000,0.01700000,0.66000000,-0.06000000,-0.13000000,-0.15000000,0.00029965,-0.00005530,0.00022846,1.96000000,-48.78000000,-0.22000000
12,0,0.75100000,0.02200000,0.65800000,0.15000000,0.32000000,0.02000000,0.00048595,0.00034214,0.00025330,1.97000000,-48.78000000,-0.22000000
13,0,0.75900000,0.02500000,0.66100000,-0.11000000,0.05000000,-0.18000000,0.00032460,0.00041549,-0.00001074,1.98000000,-48.79000000,-0.23000000
14,0,0.74800000,0.01800000,0.66000000,-0.01000000,0.37000000,0.05000000,0.00031088,0.00092294,0.00005784,1.97000000,-48.79000000,-0.23000000
15,0,0.75700000,0.02100000,0.65700000,-0.00000000,0.06000000,0.02000000,0.00031088,0.00100041,0.00008366,1.96000000,-48.80000000,-0.22000000
16,0,0.75300000,0.02200000,0.66200000,-0.24000000,-0.22000000,0.00000000,-0.00002829,0.00068950,0.00008366,1.96000000,-48.79000000,-0.22000000
17,0,0.75300000,0.02000000,0.66100000,-0.05000000,-0.00000000,-0.26000000,-0.00010355,0.00068950,-0.00030770,1.96000000,-48.79000000,-0.22000000
18,0,0.75200000,0.02300000,0.66100000,-0.08000000,-0.18000000,-0.13000000,-0.00027651,0.00030032,-0.00058877,1.97000000,-48.78000000,-0.23000000
19,0,0.75200000,0.02700000,0.65900000,0.02000000,-0.11000000,0.00000000,-0.00025296,0.00017078,-0.00058877,1.98000000,-48.78000000,-0.24000000
20,0,0.75000000,0.02100000,0.66300000,-0.08000000,-0.19000000,-0.12000000,-0.00034021,-0.00003644,-0.00071965,1.98000000,-48.78000000,-0.23000000
21,0,0.75200000,0.02500000,0.65700000,0.22000000,0.02000000,-0.07000000,-0.00010924,-0.00001544,-0.00079314,1.98000000,-48.78000000,-0.23000000
22,0,0.75200000,0.02500000,0.65800000,0.19000000,-0.06000000,-0.01000000,0.00009490,-0.00007990,-0.00080388,1.99000000,-48.77000000,-0.24000000
23,0,0.75000000,0.02600000,0.65900000,-0.02000000,-0.14000000,0.19000000,0.00007235,-0.00023770,-0.00058973,1.97000000,-48.77000000,-0.23000000
24,0,0.75100000,0.02000000,0.65600000,0.14000000,0.08000000,0.17000000,0.00022638,-0.00014969,-0.00040271,1.97000000,-48.77000000,-0.23000000
25,0,0.75100000,0.02000000,0.66000000,0.18000000,0.16000000,0.16000000,0.00042089,0.00002321,-0.00022981,1.96000000,-48.77000000,-0.22000000
26,0,0.74600000,0.02100000,0.65900000,-0.02000000,-0.03000000,-0.06000000,0.00039318,-0.00001835,-0.00031294,1.95000000,-48.76000000,-0.21000000
27,0,0.75300000,0.02600000,0.66200000,-0.14000000,-0.09000000,0.16000000,0.00022263,-0.00012799,-0.00011803,1.95000000,-48.77000000,-0.21000000
28,0,0.74900000,0.02100000,0.66000000,0.22000000,-0.16000000,-0.03000000,0.00291937,-0.00208926,-0.00048577,1.95000000,-48.76000000,-0.21000000
29,0,0.75700000,0.02100000,0.65700000,-0.01000000,0.01000000,0.13000000,0.00290721,-0.00207709,-0.00032762,1.95000000,-48.76000000,-0.21000000
30,0,0.75600000,0.02000000,0.66300000,-0.02000000,0.05000000,-0.03000000,0.00288351,-0.00201784,-0.00036317,1.95000000,-48.76000000,-0.21000000
31,0,0.75100000,0.01900000,0.66100000,0.17000000,-0.13000000,-0.22000000,0.00311009,-0.00219111,-0.00065640,1.95000000,-48.76000000,-0.21000000
32,0,0.75700000,0.02200000,0.65800000,0.14000000,0.13000000,-0.30000000,0.00327907,-0.00203421,-0.00101850,1.95000000,-48.76000000,-0.21000000
33,0,0.75700000,0.02400000,0.65800000,-0.07000000,-0.01000000,-0.15000000,0.00319744,-0.00204587,-0.00119343,1.95000000,-48.75000000,-0.21000000
34,0,0.75000000,0.02400000,0.66300000,-0.20000000,-0.02000000,0.25000000,-0.00767442,-0.00313305,0.01239640,1.96000000,-48.76000000,-0.22000000
35,0,0.75100000,0.01900000,0.65900000,0.02000000,-0.05000000,-0.07000000,-0.00765314,-0.00318626,0.01232191,1.96000000,-48.76000000,-0.22000000
36,0,0.75800000,0.02500000,0.66200000,-0.04000000,-0.10000000,-0.06000000,-0.00769370,-0.00328767,0.01226106,1.96000000,-48.76000000,-0.22000000
37,0,0.75500000,0.02400000,0.65800000,-0.03000000,-0.17000000,0.05000000,-0.00772520,-0.00346615,0.01231355,1.96000000,-48.76000000,-0.22000000
38,0,0.75600000,0.01700000,0.66200000,0.14000000,-0.06000000,-0.04000000,-0.00758202,-0.00352751,0.01227265,1.95000000,-48.76000000,-0.22000000
39,0,0.75200000,0.02100000,0.65900000,0.08000000,0.03000000,-0.02000000,-0.00750149,-0.00349731,0.01225251,1.95000000,-48.76000000,-0.22000000
40,0,0.75200000,0.02400000,0.66300000,-0.14000000,-0.04000000,-0.08000000,-0.01537101,-0.00574574,0.00775564,1.96000000,-48.76000000,-0.22000000
41,0,0.74800000,0.02700000,0.66000000,0.03000000,-0.04000000,-0.01000000,-0.01533906,-0.00578835,0.00774499,1.96000000,-48.76000000,-0.22000000
42,0,0.75200000,0.02200000,0.65800000,0.12000000,0.07000000,-0.10000000,-0.01521691,-0.00571709,0.00764320,1.96000000,-48.76000000,-0.22000000
43,0,0.75300000,0.02500000,0.66000000,0.21000000,-0.20000000,-0.08000000,-0.01500324,-0.00592058,0.00756181,1.96000000,-48.76000000,-0.22000000
44,0,0.75200000,0.01600000,0.66000000,0.16000000,-0.06000000,0.19000000,-0.01484217,-0.00598098,0.00775308,1.96000000,-48.76000000,-0.22000000
45,0,0.74700000,0.01900000,0.65900000,-0.01000000,0.00000000,0.28000000,-0.01485263,-0.00598098,0.00804597,1.96000000,-48.76000000,-0.22000000
46,0,0.74800000,0.02200000,0.65600000,0.08000000,-0.03000000,-0.22000000,-0.01042071,-0.00764295,-0.00414182,1.97000000,-48.76000000,-0.23000000
47,0,0.75500000,0.02200000,0.66100000,0.16000000,0.01000000,0.11000000,-0.01025117,-0.00763236,-0.00402526,1.97000000,-48.76000000,-0.23000000
48,0,0.75200000,0.02200000,0.66000000,-0.14000000,0.03000000,-0.21000000,-0.01039277,-0.00760201,-0.00423767,1.97000000,-48.76000000,-0.23000000
49,0,0.75400000,0.02600000,0.65700000,0.06000000,-0.08000000,0.07000000,-0.01033196,-0.00768310,-0.00416671,1.97000000,-48.76000000,-0.23000000
50,0,0.74700000,0.02000000,0.66000000,0.04000000,-0.22000000,-0.08000000,-0.01029193,-0.00790327,-0.00424677,1.97000000,-48.76000000,-0.23000000
51,0,0.75300000,0.01900000,0.65800000,-0.08000000,-0.03000000,-0.07000000,-0.01037204,-0.00793331,-0.00431687,1.97000000,-48.76000000,-0.23000000
52,0,0.75100000,0.02000000,0.65800000,-0.11000000,-0.08000000,-0.02000000,-0.01648868,-0.01238177,-0.00542899,1.97000000,-48.76000000,-0.23000000
53,0,0.74900000,0.01800000,0.65900000,-0.08000000,-0.37000000,-0.31000000,-0.01657440,-0.01277825,-0.00576117,1.97000000,-48.76000000,-0.23000000
54,0,0.75700000,0.02900000,0.65900000,-0.03000000,-0.17000000,0.14000000,-0.01660481,-0.01295056,-0.00561926,1.96000000,-48.76000000,-0.23000000
55,0,0.75100000,0.01900000,0.65700000,0.02000000,0.08000000,0.00000000,-0.01658441,-0.01286896,-0.00561926,1.96000000,-48.75000000,-0.22000000
56,0,0.75300000,0.02200000,0.66400000,-0.08000000,0.14000000,-0.06000000,-0.01666485,-0.01272818,-0.00567960,1.96000000,-48.75000000,-0.23000000
57,0,0.74900000,0.02700000,0.65700000,-0.20000000,0.09000000,-0.07000000,-0.01686547,-0.01263790,-0.00574981,1.96000000,-48.75000000,-0.22000000
58,0,0.75300000,0.02600000,0.66100000,0.16000000,0.04000000,-0.15000000,-0.00737171,-0.01026446,-0.01465022,1.95000000,-48.75000000,-0.22000000
59,0,0.75200000,0.02500000,0.65700000,-0.08000000,-0.20000000,0.07000000,-0.00746092,-0.01048750,-0.01457216,1.95000000,-48.75000000,-0.22000000
60,0,0.75500000,0.02500000,0.66500000,-0.15000000,0.12000000,0.00000000,-0.00761629,-0.01036320,-0.01457216,1.95000000,-48.75000000,-0.22000000
61,0,0.75100000,0.02000000,0.65800000,-0.27000000,0.15000000,-0.13000000,-0.00790091,-0.01020508,-0.01470920,1.95000000,-48.75000000,-0.22000000
62,0,0.75600000,0.02400000,0.65400000,-0.08000000,-0.06000000,-0.27000000,-0.00798587,-0.01026880,-0.01499594,1.95000000,-48.76000000,-0.22000000
63,0,0.75500000,0.01600000,0.65900000,-0.01000000,-0.01000000,-0.08000000,-0.00799664,-0.01027957,-0.01508209,1.95000000,-48.76000000,-0.21000000
64,0,0.75400000,0.02200000,0.65800000,-0.06000000,-0.25000000,-0.09000000,-0.00810119,-0.01071519,-0.01523891,1.95000000,-48.75000000,-0.21000000
65,0,0.75600000,0.02200000,0.65900000,-0.08000000,-0.10000000,0.15000000,-0.01245554,-0.01615813,-0.00707450,1.95000000,-48.76000000,-0.21000000
66,0,0.74800000,0.02700000,0.65800000,0.04000000,0.13000000,-0.14000000,-0.01241176,-0.01601585,-0.00722772,1.95000000,-48.76000000,-0.22000000
67,0,0.75200000,0.02500000,0.65800000,0.10000000,-0.29000000,-0.27000000,-0.01227612,-0.01640922,-0.00759397,1.95000000,-48.76000000,-0.22000000
68,0,0.75000000,0.02200000,0.65800000,-0.03000000,0.01000000,-0.18000000,-0.01231302,-0.01639692,-0.00781539,1.95000000,-48.76000000,-0.22000000
69,0,0.75300000,0.02000000,0.66300000,-0.25000000,-0.10000000,0.03000000,-0.01261166,-0.01651638,-0.00777955,1.95000000,-48.76000000,-0.22000000
70,0,0.75500000,0.01800000,0.65900000,0.04000000,-0.26000000,0.19000000,-0.01256899,-0.01679374,-0.00757686,1.95000000,-48.76000000,-0.22000000
71,0,0.75200000,0.02500000,0.66100000,-0.20000000,0.04000000,-0.11000000,-0.02351910,-0.01460372,-0.01359942,1.95000000,-48.75000000,-0.22000000
72,0,0.75200000,0.02600000,0.65800000,-0.21000000,-0.06000000,-0.19000000,-0.02373702,-0.01466598,-0.01379658,1.96000000,-48.75000000,-0.23000000
73,0,0.75400000,0.01400000,0.65600000,-0.01000000,0.03000000,-0.07000000,-0.02374763,-0.01463415,-0.01387087,1.95000000,-48.75000000,-0.22000000
74,0,0.75000000,0.03200000,0.66100000,-0.13000000,0.04000000,-0.12000000,-0.02388157,-0.01459293,-0.01399451,1.96000000,-48.75000000,-0.23000000
75,0,0.75000000,0.02500000,0.65900000,0.08000000,-0.04000000,0.01000000,-0.02379985,-0.01463379,-0.01398430,1.96000000,-48.75000000,-0.23000000
76,0,0.75000000,0.02000000,0.65700000,-0.01000000,-0.14000000,0.12000000,-0.02380991,-0.01477463,-0.01386358,1.96000000,-48.75000000,-0.23000000
77,0,0.74800000,0.02500000,0.66200000,-0.26000000,-0.20000000,-0.14000000,-0.03843930,-0.02602801,-0.02174094,1.96000000,-48.75000000,-0.23000000
78,0,0.75300000,0.02000000,0.66100000,-0.14000000,-0.18000000,-0.19000000,-0.03859049,-0.02622239,-0.02194612,1.96000000,-48.75000000,-0.23000000
79,0,0.75200000,0.02000000,0.66100000,-0.04000000,0.12000000,0.08000000,-0.03863127,-0.02610004,-0.02186456,1.96000000,-48.75000000,-0.23000000
80,0,0.75500000,0.01900000,0.65800000,0.09000000,-0.19000000,0.14000000,-0.03854073,-0.02629118,-0.02172372,1.96000000,-48.75000000,-0.23000000
81,0,0.75000000,0.02100000,0.66200000,-0.01000000,-0.08000000,0.12000000,-0.03855078,-0.02637152,-0.02160320,1.96000000,-48.75000000,-0.23000000
82,0,0.75400000,0.02400000,0.66200000,0.01000000,-0.04000000,0.11000000,-0.03854065,-0.02641203,-0.02149181,1.96000000,-48.75000000,-0.23000000
83,0,0.75600000,0.02000000,0.65600000,0.21000000,-0.18000000,0.23000000,-0.02689739,-0.03639197,-0.00873966,1.96000000,-48.75000000,-0.23000000
84,0,0.75500000,0.02200000,0.66300000,0.15000000,-0.05000000,-0.24000000,-0.02673640,-0.03644563,-0.00899724,1.96000000,-48.75000000,-0.23000000
85,0,0.74800000,0.02600000,0.65800000,0.02000000,-0.01000000,-0.13000000,-0.02671627,-0.03645570,-0.00912814,1.96000000,-48.75000000,-0.23000000
86,0,0.74800000,0.02000000,0.65400000,-0.13000000,0.09000000,-0.03000000,-0.02684735,-0.03636495,-0.00915839,1.96000000,-48.75000000,-0.23000000
87,0,0.74900000,0.02000000,0.66500000,-0.24000000,-0.01000000,-0.03000000,-0.02708776,-0.03637496,-0.00918844,1.96000000,-48.75000000,-0.23000000
88,0,0.74900000,0.02200000,0.65800000,-0.18000000,-0.08000000,-0.16000000,-0.02727009,-0.03645600,-0.00935051,1.96000000,-48.75000000,-0.22000000
89,0,0.74600000,0.02700000,0.65800000,0.24000000,-0.04000000,-0.14000000,-0.01394359,-0.03867708,-0.01712430,1.96000000,-48.75000000,-0.22000000
90,0,0.74800000,0.02000000,0.66000000,0.04000000,0.18000000,0.05000000,-0.01390041,-0.03848278,-0.01707032,1.95000000,-48.75000000,-0.22000000
91,0,0.75300000,0.02400000,0.65700000,0.16000000,-0.18000000,0.11000000,-0.01373751,-0.03866605,-0.01695833,1.95000000,-48.75000000,-0.22000000
92,0,0.76100000,0.02100000,0.65800000,-0.09000000,-0.19000000,0.01000000,-0.01382869,-0.03885855,-0.01694820,1.95000000,-48.75000000,-0.22000000
93,0,0.75300000,0.02400000,0.65900000,-0.06000000,0.09000000,-0.05000000,-0.01388968,-0.03876706,-0.01699902,1.95000000,-48.75000000,-0.22000000
94,0,0.75600000,0.02200000,0.65500000,0.24000000,-0.28000000,-0.07000000,-0.01364555,-0.03905188,-0.01707022,1.95000000,-48.75000000,-0.22000000
95,0,0.75700000,0.02200000,0.65600000,0.04000000,0.04000000,-0.19000000,-0.01139077,-0.03679710,-0.02778041,1.95000000,-48.75000000,-0.22000000
96,0,0.74500000,0.02500000,0.66000000,0.04000000,-0.33000000,0.37000000,-0.01134801,-0.03714993,-0.02738482,1.95000000,-48.75000000,-0.22000000
97,0,0.75700000,0.02000000,0.66300000,-0.02000000,-0.09000000,0.26000000,-0.01136846,-0.03724197,-0.02711892,1.95000000,-48.75000000,-0.22000000
98,0,0.75300000,0.02800000,0.66000000,-0.06000000,0.04000000,0.24000000,-0.01144105,-0.03719358,-0.02682856,1.95000000,-48.75000000,-0.22000000
99,0,0.75300000,0.02300000,0.65800000,0.13000000,-0.17000000,0.13000000,-0.01129685,-0.03738215,-0.02668436,1.95000000,-48.75000000,-0.21000000
100,0,0.74800000,0.01900000,0.66000000,-0.05000000,0.06000000,0.15000000,-0.01134871,-0.03731991,-0.02652878,1.95000000,-48.75000000,-0.21000000
101,0,0.75000000,0.02600000,0.66100000,-0.08000000,-0.26000000,-0.01000000,-0.01576008,-0.05165684,-0.02708020,1.95000000,-48.75000000,-0.22000000
102,0,0.74900000,0.02200000,0.65700000,0.00000000,-0.28000000,-0.05000000,-0.01576008,-0.05195374,-0.02713322,1.95000000,-48.75000000,-0.22000000
103,0,0.75400000,0.02600000,0.66100000,0.14000000,-0.04000000,0.12000000,-0.01561804,-0.05199432,-0.02701147,1.95000000,-48.75000000,-0.22000000
104,0,0.75400000,0.02000000,0.65800000,-0.08000000,-0.21000000,-0.17000000,-0.01569863,-0.05220588,-0.02718273,1.95000000,-48.75000000,-0.22000000
105,0,0.75000000,0.02400000,0.65700000,-0.16000000,-0.07000000,-0.24000000,-0.01586108,-0.05227695,-0.02742640,1.95000000,-48.75000000,-0.22000000
106,0,0.75000000,0.02300000,0.65400000,0.07000000,0.03000000,0.06000000,-0.01579037,-0.05224665,-0.02736579,1.96000000,-48.75000000,-0.22000000
107,0,0.74900000,0.02000000,0.66000000,-0.05000000,0.08000000,-0.14000000,-0.01857041,-0.04779859,-0.03514990,1.96000000,-48.75000000,-0.22000000
108,0,0.75100000,0.02100000,0.65900000,0.27000000,0.14000000,-0.19000000,-0.01828225,-0.04764917,-0.03535268,1.96000000,-48.75000000,-0.22000000
109,0,0.75300000,0.02400000,0.66000000,-0.01000000,-0.15000000,0.18000000,-0.01829240,-0.04780150,-0.03516988,1.96000000,-48.75000000,-0.22000000
110,0,0.75300000,0.02400000,0.65900000,0.07000000,0.17000000,0.17000000,-0.01822205,-0.04763064,-0.03499903,1.96000000,-48.75000000,-0.22000000
111,0,0.75300000,0.01900000,0.65800000,0.04000000,0.14000000,-0.27000000,-0.01818135,-0.04748820,-0.03527374,1.96000000,-48.75000000,-0.22000000
112,0,0.75400000,0.02100000,0.66100000,-0.18000000,-0.01000000,-0.06000000,-0.01836346,-0.04749832,-0.03533444,1.96000000,-48.75000000,-0.22000000
113,0,0.75500000,0.02000000,0.65800000,-0.30000000,-0.23000000,-0.14000000,-0.03524896,-0.06044387,-0.04321434,1.96000000,-48.75000000,-0.22000000
114,0,0.74900000,0.02500000,0.65900000,-0.01000000,-0.18000000,0.26000000,-0.03525959,-0.06063516,-0.04293803,1.96000000,-48.75000000,-0.22000000
115,0,0.74900000,0.02100000,0.66200000,-0.15000000,0.15000000,0.00000000,-0.03541199,-0.06048276,-0.04293803,1.96000000,-48.75000000,-0.22000000
116,0,0.75300000,0.02100000,0.65700000,-0.13000000,-0.18000000,0.01000000,-0.03554643,-0.06066891,-0.04292769,1.96000000,-48.75000000,-0.22000000
117,0,0.75200000,0.02300000,0.65900000,0.27000000,-0.13000000,0.18000000,-0.03527294,-0.06080058,-0.04274536,1.96000000,-48.75000000,-0.22000000
118,0,0.74600000,0.01800000,0.65600000,0.12000000,-0.10000000,-0.02000000,-0.03515185,-0.06090149,-0.04276555,1.96000000,-48.75000000,-0.22000000
119,0,0.75100000,0.02600000,0.65600000,0.15000000,-0.17000000,0.11000000,-0.02684429,-0.07031674,-0.03667333,1.96000000,-48.75000000,-0.22000000
120,0,0.75200000,0.02500000,0.65800000,-0.18000000,0.08000000,0.12000000,-0.02703824,-0.07023053,-0.03654403,1.95000000,-48.75000000,-0.22000000
121,0,0.75300000,0.02300000,0.65700000,-0.11000000,0.07000000,-0.07000000,-0.02715128,-0.07015860,-0.03661597,1.95000000,-48.75000000,-0.22000000
122,0,0.75500000,0.02100000,0.65700000,0.09000000,-0.02000000,-0.01000000,-0.02705888,-0.07017913,-0.03662623,1.95000000,-48.75000000,-0.22000000
123,0,0.75000000,0.02000000,0.65800000,-0.14000000,-0.03000000,-0.18000000,-0.02720095,-0.07020958,-0.03680890,1.95000000,-48.76000000,-0.22000000
124,0,0.75400000,0.02200000,0.65900000,-0.05000000,0.01000000,0.05000000,-0.02725172,-0.07019942,-0.03675814,1.95000000,-48.76000000,-0.22000000
125,0,0.74600000,0.02300000,0.66500000,-0.25000000,-0.34000000,-0.17000000,-0.04114052,-0.08908819,-0.04620252,1.95000000,-48.76000000,-0.22000000
126,0,0.74900000,0.01900000,0.65400000,0.02000000,-0.14000000,-0.17000000,-0.04111924,-0.08923714,-0.04638339,1.95000000,-48.76000000,-0.22000000
127,0,0.75100000,0.02200000,0.65800000,0.01000000,0.20000000,-0.08000000,-0.04110904,-0.08903313,-0.04646499,1.95000000,-48.76000000,-0.22000000
128,0,0.74600000,0.02100000,0.65800000,0.01000000,-0.11000000,0.41000000,-0.04109886,-0.08914513,-0.04604755,1.95000000,-48.76000000,-0.22000000
129,0,0.75100000,0.01900000,0.65900000,-0.11000000,-0.18000000,0.05000000,-0.04120973,-0.08932655,-0.04599716,1.95000000,-48.76000000,-0.22000000
130,0,0.74900000,0.02600000,0.65400000,-0.08000000,-0.34000000,0.07000000,-0.04129038,-0.08966932,-0.04592659,1.95000000,-48.76000000,-0.22000000
131,0,0.75600000,0.02100000,0.66100000,-0.22000000,0.05000000,-0.17000000,-0.05366951,-0.08685588,-0.05549228,1.95000000,-48.76000000,-0.22000000
132,0,0.74900000,0.02300000,0.66000000,-0.02000000,0.08000000,-0.14000000,-0.05369075,-0.08677093,-0.05564093,1.95000000,-48.76000000,-0.22000000
133,0,0.74900000,0.02200000,0.65900000,-0.07000000,0.14000000,0.15000000,-0.05376317,-0.08662609,-0.05548574,1.96000000,-48.76000000,-0.22000000
134,0,0.75100000,0.02600000,0.65800000,0.04000000,0.08000000,0.08000000,-0.05372275,-0.08654525,-0.05540490,1.96000000,-48.76000000,-0.23000000
135,0,0.75700000,0.02500000,0.65600000,-0.08000000,-0.01000000,-0.02000000,-0.05380321,-0.08655531,-0.05542501,1.96000000,-48.76000000,-0.23000000
136,0,0.75000000,0.02500000,0.66200000,-0.09000000,0.05000000,0.11000000,-0.05389377,-0.08650499,-0.05531433,1.96000000,-48.76000000,-0.23000000
137,0,0.75000000,0.02500000,0.65600000,0.16000000,-0.26000000,0.12000000,-0.04502191,-0.10092176,-0.04866044,1.95000000,-48.76000000,-0.22000000
138,0,0.75100000,0.02400000,0.65500000,0.04000000,0.02000000,0.17000000,-0.04497908,-0.10090035,-0.04847839,1.96000000,-48.76000000,-0.22000000
139,0,0.74900000,0.02500000,0.66400000,0.10000000,-0.00000000,0.08000000,-0.04487681,-0.10090035,-0.04839658,1.95000000,-48.76000000,-0.22000000
140,0,0.74900000,0.02500000,0.65900000,-0.15000000,0.20000000,-0.08000000,-0.04502925,-0.10069710,-0.04847788,1.96000000,-48.76000000,-0.22000000
141,0,0.75300000,0.02100000,0.66300000,-0.07000000,-0.01000000,0.07000000,-0.04509990,-0.10070719,-0.04840722,1.96000000,-48.76000000,-0.23000000
142,0,0.75100000,0.02800000,0.66000000,0.03000000,-0.11000000,-0.14000000,-0.04506966,-0.10081806,-0.04854833,1.96000000,-48.76000000,-0.23000000
143,0,0.74700000,0.02000000,0.65900000,0.07000000,-0.02000000,0.00000000,-0.04111916,-0.10194677,-0.04854833,1.96000000,-48.76000000,-0.23000000
144,0,0.75200000,0.02400000,0.65400000,-0.09000000,-0.07000000,0.22000000,-0.04121627,-0.10202230,-0.04831096,1.96000000,-48.76000000,-0.23000000
145,0,0.74900000,0.02200000,0.66200000,0.08000000,-0.16000000,0.41000000,-0.04113425,-0.10218635,-0.04789059,1.96000000,-48.76000000,-0.23000000
146,0,0.75200000,0.02500000,0.65700000,-0.30000000,0.06000000,0.03000000,-0.04143754,-0.10212569,-0.04786026,1.95000000,-48.76000000,-0.23000000
147,0,0.75100000,0.02200000,0.65600000,0.01000000,0.18000000,-0.15000000,-0.04142750,-0.10194495,-0.04801087,1.95000000,-48.76000000,-0.22000000
148,0,0.75600000,0.02300000,0.66100000,0.14000000,-0.01000000,-0.01000000,-0.04128450,-0.10195517,-0.04802109,1.95000000,-48.76000000,-0.22000000
149,0,0.75000000,0.02200000,0.65900000,0.31000000,-0.04000000,0.10000000,-0.02410503,-0.10417187,-0.04247932,1.95000000,-48.76000000,-0.22000000
150,0,0.75100000,0.02100000,0.65400000,-0.13000000,-0.07000000,0.20000000,-0.02424588,-0.10424772,-0.04226263,1.95000000,-48.76000000,-0.22000000
151,0,0.74600000,0.02500000,0.65700000,-0.07000000,-0.21000000,-0.00000000,-0.02431705,-0.10446123,-0.04226263,1.95000000,-48.76000000,-0.22000000
152,0,0.75300000,0.02400000,0.65800000,0.08000000,0.07000000,-0.11000000,-0.02423642,-0.10439068,-0.04237350,1.95000000,-48.76000000,-0.22000000
153,0,0.75300000,0.02300000,0.65800000,0.00000000,0.06000000,-0.19000000,-0.02423642,-0.10433047,-0.04256414,1.95000000,-48.76000000,-0.22000000
154,0,0.75100000,0.02600000,0.66300000,-0.12000000,-0.07000000,-0.00000000,-0.02435971,-0.10440239,-0.04256414,1.95000000,-48.76000000,-0.23000000
155,0,0.75200000,0.02500000,0.65600000,0.19000000,-0.29000000,0.11000000,-0.01382905,-0.12047552,-0.03646743,1.95000000,-48.76000000,-0.22000000
156,0,0.75200000,0.02300000,0.66400000,-0.13000000,0.02000000,-0.18000000,-0.01397166,-0.12045357,-0.03666491,1.95000000,-48.77000000,-0.23000000
157,0,0.75100000,0.02300000,0.66000000,0.20000000,0.07000000,-0.14000000,-0.01376660,-0.12038180,-0.03680845,1.96000000,-48.77000000,-0.23000000
158,0,0.74700000,0.02500000,0.65500000,-0.14000000,0.09000000,0.11000000,-0.01390948,-0.12028996,-0.03669619,1.96000000,-48.77000000,-0.23000000
159,0,0.75400000,0.02100000,0.65700000,0.09000000,0.01000000,-0.03000000,-0.01381866,-0.12027986,-0.03672646,1.96000000,-48.77000000,-0.23000000
160,0,0.75300000,0.02500000,0.65600000,0.04000000,-0.04000000,-0.08000000,-0.01377814,-0.12032038,-0.03680749,1.96000000,-48.77000000,-0.23000000
161,0,0.75100000,0.02200000,0.65700000,-0.21000000,0.23000000,-0.09000000,-0.02546482,-0.10752069,-0.04181607,1.95000000,-48.77000000,-0.22000000
162,0,0.75800000,0.02200000,0.66100000,0.05000000,-0.19000000,0.06000000,-0.02540887,-0.10773330,-0.04174893,1.95000000,-48.77000000,-0.22000000
163,0,0.75100000,0.02100000,0.65800000,-0.14000000,-0.03000000,-0.05000000,-0.02555411,-0.10776443,-0.04180080,1.95000000,-48.77000000,-0.22000000
164,0,0.75100000,0.02400000,0.65600000,-0.06000000,0.09000000,0.14000000,-0.02561476,-0.10767346,-0.04165929,1.96000000,-48.77000000,-0.22000000
165,0,0.75200000,0.02400000,0.66100000,0.21000000,-0.15000000,0.31000000,-0.02540285,-0.10782482,-0.04134648,1.95000000,-48.77000000,-0.22000000
166,0,0.75100000,0.02600000,0.65400000,0.07000000,-0.15000000,0.10000000,-0.02533176,-0.10797715,-0.04124492,1.95000000,-48.77000000,-0.22000000
167,0,0.75100000,0.02400000,0.65800000,0.03000000,0.13000000,0.17000000,-0.02364795,-0.10068065,-0.03170334,1.95000000,-48.77000000,-0.22000000
168,0,0.75600000,0.02300000,0.65800000,-0.15000000,0.06000000,-0.01000000,-0.02380861,-0.10061639,-0.03171406,1.95000000,-48.77000000,-0.22000000
169,0,0.75000000,0.02100000,0.66100000,0.10000000,-0.31000000,0.32000000,-0.02370625,-0.10093371,-0.03138649,1.95000000,-48.77000000,-0.22000000
170,0,0.75100000,0.02300000,0.65500000,-0.07000000,-0.23000000,0.06000000,-0.02377700,-0.10116619,-0.03132585,1.95000000,-48.77000000,-0.22000000
171,0,0.75700000,0.02400000,0.65800000,0.11000000,-0.17000000,0.32000000,-0.02366582,-0.10133802,-0.03100240,1.95000000,-48.77000000,-0.22000000
172,0,0.75300000,0.02300000,0.65900000,-0.04000000,-0.20000000,-0.06000000,-0.02370663,-0.10154207,-0.03106362,1.95000000,-48.78000000,-0.22000000
173,0,0.74400000,0.02200000,0.65800000,0.05000000,0.23000000,-0.06000000,-0.02093573,-0.08879591,-0.03438871,1.95000000,-48.78000000,-0.22000000
174,0,0.75500000,0.02300000,0.65700000,-0.23000000,-0.22000000,-0.07000000,-0.02118717,-0.08903642,-0.03446524,1.95000000,-48.78000000,-0.22000000
175,0,0.75100000,0.02500000,0.65800000,-0.00000000,0.09000000,-0.22000000,-0.02118717,-0.08893915,-0.03470302,1.96000000,-48.78000000,-0.23000000
176,0,0.75300000,0.02100000,0.65900000,0.04000000,0.12000000,0.01000000,-0.02113077,-0.08876993,-0.03468892,1.96000000,-48.78000000,-0.23000000
177,0,0.75300000,0.02400000,0.66000000,0.13000000,-0.05000000,-0.17000000,-0.02096339,-0.08883431,-0.03490781,1.96000000,-48.78000000,-0.23000000
178,0,0.75700000,0.02400000,0.66100000,-0.18000000,0.35000000,0.00000000,-0.02118459,-0.08840419,-0.03490781,1.96000000,-48.78000000,-0.23000000
179,0,0.75900000,0.02400000,0.65800000,0.06000000,-0.18000000,-0.21000000,-0.01784820,-0.09841336,-0.04658517,1.96000000,-48.78000000,-0.23000000
180,0,0.74900000,0.01900000,0.65800000,0.16000000,-0.19000000,0.24000000,-0.01765131,-0.09864717,-0.04628983,1.96000000,-48.78000000,-0.23000000
181,0,0.75500000,0.02300000,0.66100000,-0.07000000,0.11000000,-0.05000000,-0.01772648,-0.09852903,-0.04634353,1.96000000,-48.78000000,-0.23000000
182,0,0.75100000,0.02200000,0.65900000,0.11000000,-0.11000000,-0.01000000,-0.01761263,-0.09864289,-0.04635388,1.96000000,-48.78000000,-0.23000000
183,0,0.75300000,0.02200000,0.65700000,-0.25000000,0.13000000,-0.05000000,-0.01787777,-0.09850502,-0.04640691,1.97000000,-48.78000000,-0.23000000
184,0,0.75600000,0.02100000,0.65900000,-0.20000000,-0.17000000,0.04000000,-0.01808202,-0.09867863,-0.04636606,1.96000000,-48.78000000,-0.23000000
185,0,0.75300000,0.02000000,0.65900000,-0.05000000,-0.16000000,-0.03000000,-0.02098008,-0.10795240,-0.04810489,1.96000000,-48.78000000,-0.23000000
186,0,0.75300000,0.02500000,0.65900000,-0.24000000,0.23000000,0.11000000,-0.02124652,-0.10769706,-0.04798277,1.96000000,-48.78000000,-0.23000000
187,0,0.75500000,0.02000000,0.65300000,-0.02000000,0.01000000,-0.11000000,-0.02126695,-0.10768685,-0.04809513,1.96000000,-48.78000000,-0.23000000
188,0,0.75000000,0.02600000,0.66000000,-0.06000000,0.05000000,-0.00000000,-0.02132771,-0.10763621,-0.04809513,1.97000000,-48.78000000,-0.23000000
189,0,0.75000000,0.02000000,0.66100000,-0.18000000,-0.32000000,0.03000000,-0.02151128,-0.10796255,-0.04806454,1.96000000,-48.78000000,-0.23000000
190,0,0.75500000,0.02300000,0.65900000,0.14000000,-0.12000000,-0.01000000,-0.02136920,-0.10808433,-0.04807469,1.97000000,-48.78000000,-0.23000000
191,0,0.75600000,0.02500000,0.65700000,-0.08000000,-0.18000000,0.04000000,-0.02145024,-0.10826665,-0.04803417,1.97000000,-48.78000000,-0.23000000
192,0,0.75800000,0.02400000,0.66100000,0.08000000,-0.04000000,0.04000000,-0.01702140,-0.11048107,-0.04581975,1.97000000,-48.78000000,-0.23000000
193,0,0.75000000,0.02000000,0.66000000,0.01000000,-0.00000000,0.11000000,-0.01701073,-0.11048107,-0.04570233,1.97000000,-48.78000000,-0.23000000
194,0,0.75200000,0.02600000,0.66100000,-0.05000000,0.15000000,0.01000000,-0.01706180,-0.11032785,-0.04569211,1.97000000,-48.78000000,-0.23000000
195,0,0.74700000,0.01900000,0.65800000,0.21000000,0.25000000,0.12000000,-0.01684859,-0.11007403,-0.04557028,1.97000000,-48.78000000,-0.23000000
196,0,0.75700000,0.02200000,0.65800000,-0.04000000,-0.23000000,0.22000000,-0.01688934,-0.11030831,-0.04534618,1.97000000,-48.78000000,-0.23000000
197,0,0.75200000,0.02500000,0.65700000,0.01000000,-0.06000000,-0.08000000,-0.01687919,-0.11036920,-0.04542736,1.97000000,-48.78000000,-0.23000000
198,0,0.75800000,0.02100000,0.66200000,0.07000000,-0.01000000,0.03000000,-0.01298265,-0.11092585,-0.04375742,1.97000000,-48.78000000,-0.23000000
199,0,0.75200000,0.02600000,0.66000000,-0.21000000,0.04000000,0.15000000,-0.01320772,-0.11088298,-0.04359665,1.97000000,-48.78000000,-0.23000000
200,0,0.75200000,0.02600000,0.65800000,0.06000000,-0.05000000,-0.04000000,-0.01314648,-0.11093401,-0.04363748,1.97000000,-48.78000000,-0.23000000
201,0,0.75300000,0.02600000,0.65700000,-0.18000000,-0.18000000,-0.04000000,-0.01333009,-0.11111762,-0.04367828,1.97000000,-48.78000000,-0.23000000
202,0,0.75100000,0.02300000,0.66100000,-0.02000000,0.09000000,-0.00000000,-0.01335048,-0.11102586,-0.04367828,1.97000000,-48.78000000,-0.23000000
203,0,0.75300000,0.02200000,0.66100000,0.03000000,0.14000000,-0.04000000,-0.01331602,-0.11086506,-0.04372423,1.97000000,-48.78000000,-0.23000000
204,0,0.75200000,0.02300000,0.65900000,-0.37000000,-0.34000000,0.00000000,-0.03405088,-0.12991871,-0.04372423,1.97000000,-48.78000000,-0.23000000
205,0,0.75600000,0.02500000,0.65800000,0.08000000,-0.21000000,-0.06000000,-0.03396498,-0.13014419,-0.04378865,1.97000000,-48.78000000,-0.23000000
206,0,0.75100000,0.02000000,0.66000000,0.20000000,-0.19000000,-0.07000000,-0.03376150,-0.13033750,-0.04385987,1.97000000,-48.78000000,-0.23000000
207,0,0.75300000,0.02900000,0.66200000,-0.05000000,0.10000000,0.06000000,-0.03381238,-0.13023574,-0.04379881,1.97000000,-48.78000000,-0.23000000
208,0,0.75200000,0.03000000,0.65500000,0.14000000,0.12000000,-0.05000000,-0.03367104,-0.13011459,-0.04384929,1.97000000,-48.78000000,-0.23000000
209,0,0.75300000,0.02300000,0.65800000,0.03000000,0.13000000,0.13000000,-0.03364078,-0.12998347,-0.04371817,1.97000000,-48.78000000,-0.24000000
210,0,0.75400000,0.02300000,0.65700000,0.04000000,0.11000000,0.01000000,-0.03141853,-0.12387229,-0.04316260,1.97000000,-48.78000000,-0.23000000
211,0,0.75100000,0.02700000,0.65700000,-0.20000000,0.01000000,-0.17000000,-0.03163966,-0.12386124,-0.04335056,1.97000000,-48.78000000,-0.24000000
212,0,0.75800000,0.02500000,0.65800000,-0.13000000,0.16000000,-0.01000000,-0.03177264,-0.12369757,-0.04336079,1.97000000,-48.78000000,-0.24000000
213,0,0.74900000,0.03000000,0.65500000,-0.09000000,0.01000000,0.07000000,-0.03186574,-0.12368722,-0.04328839,1.97000000,-48.78000000,-0.23000000
214,0,0.74800000,0.02500000,0.65700000,0.04000000,-0.14000000,0.01000000,-0.03182119,-0.12384315,-0.04327725,1.97000000,-48.78000000,-0.24000000
215,0,0.75300000,0.02700000,0.65300000,-0.13000000,0.03000000,0.11000000,-0.03200710,-0.12380025,-0.04311994,1.97000000,-48.78000000,-0.23000000
216,0,0.75100000,0.02600000,0.65800000,-0.02000000,-0.17000000,0.01000000,-0.03312194,-0.13327637,-0.04256252,1.97000000,-48.78000000,-0.24000000
217,0,0.75600000,0.02900000,0.65800000,0.11000000,0.14000000,-0.01000000,-0.03300376,-0.13312595,-0.04257326,1.97000000,-48.78000000,-0.23000000
218,0,0.75300000,0.02000000,0.66000000,0.08000000,-0.00000000,-0.07000000,-0.03291994,-0.13312595,-0.04264660,1.97000000,-48.78000000,-0.24000000
219,0,0.75300000,0.02100000,0.65800000,0.09000000,0.16000000,0.05000000,-0.03282582,-0.13295862,-0.04259431,1.97000000,-48.78000000,-0.24000000
220,0,0.75300000,0.02000000,0.65900000,-0.27000000,-0.13000000,0.20000000,-0.03310136,-0.13309129,-0.04239020,1.97000000,-48.78000000,-0.24000000
221,0,0.75700000,0.02400000,0.65600000,-0.03000000,-0.07000000,0.01000000,-0.03313161,-0.13316188,-0.04238012,1.98000000,-48.78000000,-0.24000000
222,0,0.75100000,0.02300000,0.65800000,0.09000000,-0.02000000,0.10000000,-0.02814654,-0.13426967,-0.03684115,1.98000000,-48.78000000,-0.24000000
223,0,0.75100000,0.02100000,0.65700000,-0.18000000,-0.18000000,0.08000000,-0.02835126,-0.13447440,-0.03675016,1.98000000,-48.78000000,-0.24000000
224,0,0.75800000,0.02000000,0.66100000,-0.02000000,0.01000000,-0.12000000,-0.02837229,-0.13446388,-0.03687634,1.98000000,-48.78000000,-0.24000000
225,0,0.75200000,0.02000000,0.65700000,-0.05000000,-0.07000000,0.07000000,-0.02842280,-0.13453460,-0.03680562,1.98000000,-48.78000000,-0.24000000
226,0,0.75200000,0.02200000,0.65600000,0.14000000,0.18000000,0.03000000,-0.02828190,-0.13435344,-0.03677543,1.97000000,-48.78000000,-0.23000000
227,0,0.75000000,0.02300000,0.65700000,-0.23000000,-0.33000000,-0.11000000,-0.02851289,-0.13468486,-0.03688590,1.97000000,-48.78000000,-0.23000000
228,0,0.75200000,0.01900000,0.66300000,-0.25000000,0.04000000,-0.01000000,-0.04234787,-0.13247127,-0.03743930,1.97000000,-48.78000000,-0.23000000
229,0,0.75300000,0.03100000,0.65900000,0.26000000,0.05000000,0.08000000,-0.04202340,-0.13240887,-0.03733946,1.97000000,-48.78000000,-0.23000000
230,0,0.75000000,0.02500000,0.65900000,0.02000000,-0.16000000,0.11000000,-0.04199832,-0.13260946,-0.03720155,1.97000000,-48.78000000,-0.23000000
231,0,0.74900000,0.02800000,0.66000000,0.10000000,-0.08000000,0.14000000,-0.04187569,-0.13270756,-0.03702987,1.97000000,-48.78000000,-0.23000000
232,0,0.75200000,0.02100000,0.66200000,0.12000000,0.00000000,-0.01000000,-0.04173174,-0.13270756,-0.03704187,1.97000000,-48.78000000,-0.23000000
233,0,0.74900000,0.02200000,0.66100000,-0.17000000,0.15000000,-0.03000000,-0.04198719,-0.13248217,-0.03708695,1.97000000,-48.78000000,-0.23000000
234,0,0.75500000,0.01900000,0.66000000,-0.09000000,0.05000000,-0.07000000,-0.04694677,-0.12972685,-0.04094440,1.97000000,-48.78000000,-0.23000000
235,0,0.75400000,0.02100000,0.65900000,0.04000000,0.10000000,-0.11000000,-0.04690209,-0.12961514,-0.04106728,1.97000000,-48.78000000,-0.23000000
236,0,0.75500000,0.02400000,0.65900000,-0.13000000,-0.24000000,0.06000000,-0.04703693,-0.12986407,-0.04100505,1.97000000,-48.78000000,-0.23000000
237,0,0.75300000,0.02500000,0.65500000,-0.12000000,-0.10000000,0.01000000,-0.04715822,-0.12996515,-0.04099494,1.97000000,-48.78000000,-0.23000000
238,0,0.74700000,0.02500000,0.65900000,-0.08000000,0.23000000,-0.01000000,-0.04723879,-0.12973349,-0.04100501,1.97000000,-48.78000000,-0.23000000
239,0,0.75200000,0.02400000,0.65900000,0.25000000,0.04000000,-0.07000000,-0.04697925,-0.12969197,-0.04107769,1.97000000,-48.78000000,-0.23000000
240,0,0.75200000,0.02400000,0.66100000,0.21000000,-0.19000000,-0.28000000,-0.03535491,-0.14020922,-0.05657680,1.97000000,-48.78000000,-0.23000000
241,0,0.75400000,0.01900000,0.66000000,-0.04000000,0.01000000,0.03000000,-0.03539820,-0.14019840,-0.05654433,1.97000000,-48.78000000,-0.23000000
242,0,0.75700000,0.02700000,0.65800000,-0.10000000,-0.06000000,0.19000000,-0.03550021,-0.14025960,-0.05635052,1.97000000,-48.78000000,-0.23000000
243,0,0.75200000,0.02600000,0.66600000,0.10000000,0.20000000,0.07000000,-0.03539742,-0.14005402,-0.05627857,1.97000000,-48.78000000,-0.23000000
244,0,0.74900000,0.02700000,0.65900000,0.06000000,-0.09000000,-0.13000000,-0.03533631,-0.14014567,-0.05641096,1.97000000,-48.78000000,-0.23000000
245,0,0.75300000,0.02200000,0.65700000,0.12000000,0.22000000,-0.05000000,-0.03521414,-0.13992168,-0.05646187,1.97000000,-48.78000000,-0.23000000
246,0,0.75300000,0.02400000,0.66200000,0.10000000,-0.00000000,-0.16000000,-0.02966744,-0.13992168,-0.06533659,1.97000000,-48.78000000,-0.23000000
247,0,0.75300000,0.01800000,0.65600000,0.07000000,-0.10000000,-0.05000000,-0.02959116,-0.14003065,-0.06539107,1.97000000,-48.78000000,-0.23000000
248,0,0.75200000,0.02200000,0.65800000,0.02000000,0.20000000,-0.04000000,-0.02957071,-0.13982611,-0.06543198,1.97000000,-48.78000000,-0.23000000
249,0,0.74700000,0.02300000,0.65900000,-0.26000000,-0.14000000,-0.08000000,-0.02983381,-0.13996779,-0.06551293,1.97000000,-48.78000000,-0.23000000
250,0,0.75500000,0.02400000,0.66000000,0.04000000,0.03000000,0.31000000,-0.02979354,-0.13993758,-0.06520078,1.97000000,-48.78000000,-0.23000000
251,0,0.75100000,0.02300000,0.66400000,0.04000000,-0.02000000,-0.06000000,-0.02974556,-0.13996156,-0.06527274,1.97000000,-48.78000000,-0.23000000
252,0,0.75000000,0.01600000,0.66300000,-0.10000000,0.08000000,0.23000000,-0.03535959,-0.13547034,-0.05236047,1.97000000,-48.78000000,-0.23000000
253,0,0.75000000,0.02100000,0.65600000,0.01000000,-0.20000000,-0.06000000,-0.03534886,-0.13568503,-0.05242488,1.97000000,-48.78000000,-0.23000000
254,0,0.75400000,0.02200000,0.66100000,-0.07000000,-0.07000000,0.07000000,-0.03542033,-0.13575650,-0.05235341,1.97000000,-48.78000000,-0.23000000
255,0,0.75000000,0.02000000,0.65800000,-0.24000000,-0.16000000,-0.05000000,-0.03566291,-0.13591823,-0.05240395,1.97000000,-48.78000000,-0.23000000
256,0,0.75000000,0.02300000,0.65700000,-0.07000000,0.10000000,0.03000000,-0.03573405,-0.13581660,-0.05237346,1.97000000,-48.78000000,-0.23000000
257,0,0.75200000,0.02300000,0.65300000,-0.10000000,-0.00000000,0.07000000,-0.03583500,-0.13581660,-0.05230279,1.97000000,-48.78000000,-0.23000000
258,0,0.75600000,0.02200000,0.66200000,0.33000000,0.06000000,0.11000000,-0.01753569,-0.13248945,-0.04620302,1.97000000,-48.78000000,-0.23000000
259,0,0.74500000,0.02400000,0.66200000,0.09000000,-0.23000000,0.11000000,-0.01743979,-0.13273454,-0.04608581,1.97000000,-48.78000000,-0.23000000
260,0,0.75100000,0.02000000,0.65800000,-0.13000000,-0.05000000,-0.10000000,-0.01757209,-0.13278542,-0.04618757,1.97000000,-48.78000000,-0.23000000
261,0,0.75100000,0.02200000,0.66000000,0.07000000,0.03000000,0.04000000,-0.01750140,-0.13275513,-0.04614718,1.97000000,-48.78000000,-0.23000000
262,0,0.74700000,0.02100000,0.66200000,0.12000000,-0.07000000,-0.06000000,-0.01737991,-0.13282600,-0.04620793,1.97000000,-48.78000000,-0.23000000
263,0,0.75000000,0.02200000,0.65700000,-0.10000000,-0.06000000,0.24000000,-0.01748137,-0.13288688,-0.04596443,1.97000000,-48.78000000,-0.23000000
264,0,0.75300000,0.02200000,0.65800000,-0.03000000,0.07000000,0.05000000,-0.01915332,-0.12898564,-0.04317784,1.97000000,-48.78000000,-0.23000000
265,0,0.75200000,0.02000000,0.66200000,-0.04000000,0.02000000,-0.07000000,-0.01919855,-0.12896303,-0.04325698,1.97000000,-48.78000000,-0.23000000
266,0,0.75100000,0.02200000,0.65700000,0.03000000,-0.12000000,-0.18000000,-0.01916805,-0.12908504,-0.04343999,1.97000000,-48.78000000,-0.23000000
267,0,0.75300000,0.02100000,0.66100000,0.15000000,0.06000000,0.13000000,-0.01901522,-0.12902390,-0.04330754,1.97000000,-48.78000000,-0.23000000
268,0,0.74900000,0.02300000,0.65800000,-0.09000000,-0.03000000,-0.30000000,-0.01910702,-0.12905451,-0.04361356,1.97000000,-48.78000000,-0.23000000
269,0,0.75600000,0.02300000,0.66000000,0.08000000,-0.06000000,0.40000000,-0.01902643,-0.12911495,-0.04321059,1.97000000,-48.78000000,-0.23000000
270,0,0.75300000,0.02000000,0.66100000,0.08000000,0.06000000,-0.15000000,-0.01454143,-0.12575120,-0.05161997,1.97000000,-48.78000000,-0.23000000
271,0,0.74700000,0.02700000,0.65600000,0.11000000,0.06000000,0.17000000,-0.01442300,-0.12568660,-0.05143696,1.97000000,-48.78000000,-0.23000000
272,0,0.75100000,0.02500000,0.65800000,0.18000000,0.10000000,-0.04000000,-0.01421618,-0.12557170,-0.05148292,1.97000000,-48.78000000,-0.23000000
273,0,0.75500000,0.02500000,0.65700000,0.05000000,-0.00000000,-0.13000000,-0.01416199,-0.12557170,-0.05162380,1.97000000,-48.78000000,-0.23000000
274,0,0.74900000,0.02400000,0.65700000,0.04000000,-0.22000000,-0.03000000,-0.01412098,-0.12579727,-0.05165456,1.97000000,-48.78000000,-0.24000000
275,0,0.75000000,0.02700000,0.66000000,-0.07000000,-0.06000000,0.09000000,-0.01419175,-0.12585793,-0.05156357,1.97000000,-48.78000000,-0.23000000
276,0,0.75200000,0.02300000,0.65800000,0.13000000,-0.19000000,0.01000000,-0.00700735,-0.13635820,-0.05101093,1.97000000,-48.78000000,-0.23000000
277,0,0.75900000,0.02600000,0.66000000,0.14000000,-0.22000000,0.05000000,-0.00685810,-0.13659273,-0.05095762,1.97000000,-48.78000000,-0.23000000
278,0,0.74600000,0.02200000,0.65900000,0.25000000,-0.16000000,0.10000000,-0.00660363,-0.13675560,-0.05085583,1.97000000,-48.78000000,-0.23000000
279,0,0.75400000,0.02600000,0.66200000,-0.13000000,-0.08000000,0.02000000,-0.00673568,-0.13683686,-0.05083552,1.97000000,-48.78000000,-0.23000000
280,0,0.75100000,0.02800000,0.66100000,0.02000000,0.07000000,0.05000000,-0.00671552,-0.13676631,-0.05078512,1.98000000,-48.78000000,-0.24000000
281,0,0.75000000,0.02500000,0.66100000,-0.07000000,-0.00000000,0.01000000,-0.00678609,-0.13676631,-0.05077504,1.98000000,-48.78000000,-0.24000000
282,0,0.75100000,0.02400000,0.66100000,-0.14000000,0.09000000,-0.05000000,-0.01457603,-0.13175848,-0.05355716,1.98000000,-48.78000000,-0.24000000
283,0,0.75100000,0.02100000,0.65900000,-0.06000000,0.02000000,-0.39000000,-0.01466384,-0.13172921,-0.05412794,1.98000000,-48.78000000,-0.24000000
284,0,0.74800000,0.02100000,0.65900000,0.10000000,-0.03000000,0.13000000,-0.01452348,-0.13177132,-0.05394546,1.98000000,-48.78000000,-0.24000000
285,0,0.74700000,0.01800000,0.65600000,0.02000000,0.06000000,-0.18000000,-0.01449583,-0.13168838,-0.05419430,1.98000000,-48.78000000,-0.24000000
286,0,0.74900000,0.02900000,0.66000000,-0.12000000,0.02000000,0.05000000,-0.01466161,-0.13166075,-0.05412522,1.98000000,-48.78000000,-0.24000000
287,0,0.75200000,0.02400000,0.65700000,0.00000000,-0.01000000,0.07000000,-0.01466161,-0.13167550,-0.05402198,1.98000000,-48.78000000,-0.24000000
288,0,0.74900000,0.02100000,0.65900000,0.20000000,0.01000000,0.14000000,-0.00380486,-0.13113266,-0.04642226,1.98000000,-48.78000000,-0.24000000
289,0,0.75000000,0.02100000,0.66100000,0.02000000,-0.06000000,0.13000000,-0.00377587,-0.13121963,-0.04623383,1.98000000,-48.78000000,-0.24000000
290,0,0.75400000,0.02400000,0.65600000,0.00000000,-0.01000000,-0.04000000,-0.00377587,-0.13123402,-0.04629141,1.98000000,-48.78000000,-0.24000000
291,0,0.74900000,0.02000000,0.65800000,0.36000000,-0.35000000,-0.26000000,-0.00320335,-0.13179064,-0.04670490,1.98000000,-48.78000000,-0.24000000
292,0,0.74700000,0.02400000,0.66000000,0.01000000,0.12000000,0.07000000,-0.00318259,-0.13154152,-0.04655958,1.98000000,-48.78000000,-0.24000000
293,0,0.75100000,0.02100000,0.66100000,-0.14000000,0.06000000,0.16000000,-0.00340721,-0.13144526,-0.04630287,1.98000000,-48.78000000,-0.24000000
294,0,0.75100000,0.02600000,0.66200000,0.16000000,-0.11000000,0.11000000,0.00499461,-0.13722150,-0.04052662,1.98000000,-48.78000000,-0.24000000
295,0,0.75200000,0.02400000,0.66000000,0.12000000,-0.05000000,-0.04000000,0.00517489,-0.13729662,-0.04058672,1.99000000,-48.78000000,-0.24000000
296,0,0.75300000,0.02600000,0.66100000,0.10000000,-0.03000000,0.20000000,0.00532413,-0.13734139,-0.04028825,1.99000000,-48.78000000,-0.24000000
297,0,0.75300000,0.02800000,0.65500000,-0.07000000,0.10000000,0.11000000,0.00522682,-0.13720238,-0.04013534,1.99000000,-48.78000000,-0.24000000
298,0,0.75500000,0.02300000,0.65900000,-0.07000000,-0.18000000,-0.16000000,0.00512776,-0.13745710,-0.04036176,1.99000000,-48.78000000,-0.24000000
299,0,0.75500000,0.02900000,0.66100000,0.16000000,-0.00000000,-0.06000000,0.00536051,-0.13745710,-0.04044904,1.99000000,-48.79000000,-0.24000000
300,0,0.75400000,0.02100000,0.66100000,0.10000000,-0.28000000,0.05000000,0.01069741,-0.15240040,-0.03778059,1.99000000,-48.79000000,-0.24000000
301,0,0.75500000,0.02300000,0.66400000,-0.17000000,-0.03000000,0.08000000,0.01044281,-0.15244533,-0.03766078,1.99000000,-48.78000000,-0.24000000
302,0,0.75000000,0.02600000,0.65600000,0.18000000,0.08000000,0.11000000,0.01069019,-0.15233538,-0.03750961,1.99000000,-48.79000000,-0.24000000
303,0,0.75300000,0.02000000,0.66200000,-0.06000000,0.00000000,-0.05000000,0.01061025,-0.15233538,-0.03757622,1.99000000,-48.79000000,-0.24000000
304,0,0.75400000,0.02200000,0.65800000,-0.07000000,0.16000000,-0.14000000,0.01051784,-0.15212414,-0.03776106,1.99000000,-48.79000000,-0.24000000
305,0,0.75500000,0.02300000,0.65700000,0.06000000,0.08000000,0.06000000,0.01059826,-0.15201690,-0.03768063,1.99000000,-48.79000000,-0.24000000
306,0,0.75600000,0.02500000,0.65600000,0.18000000,0.00000000,-0.39000000,0.02094187,-0.15201690,-0.06009177,1.99000000,-48.79000000,-0.25000000
307,0,0.74900000,0.02400000,0.65800000,-0.31000000,0.05000000,-0.12000000,0.02051501,-0.15194806,-0.06025700,1.99000000,-48.79000000,-0.25000000
308,0,0.75400000,0.02500000,0.65300000,0.00000000,-0.04000000,-0.00000000,0.02051501,-0.15200300,-0.06025700,1.99000000,-48.79000000,-0.25000000
309,0,0.75300000,0.02000000,0.66100000,0.15000000,-0.01000000,-0.10000000,0.02071776,-0.15201652,-0.06039217,2.00000000,-48.79000000,-0.25000000
310,0,0.74700000,0.02200000,0.65600000,-0.09000000,-0.07000000,0.20000000,0.02059828,-0.15210945,-0.06012665,1.99000000,-48.79000000,-0.25000000
311,0,0.75300000,0.02400000,0.65600000,-0.30000000,-0.03000000,0.07000000,0.02018712,-0.15215057,-0.06003071,2.00000000,-48.79000000,-0.25000000
312,0,0.75500000,0.02000000,0.66000000,0.04000000,0.11000000,0.13000000,0.02024048,-0.15200382,-0.05985729,1.99000000,-48.79000000,-0.25000000
313,0,0.75100000,0.02100000,0.65400000,0.04000000,-0.31000000,-0.06000000,0.02238728,-0.16864153,-0.06307749,1.99000000,-48.79000000,-0.25000000
314,0,0.74300000,0.02000000,0.66000000,0.04000000,-0.06000000,0.01000000,0.02244322,-0.16872544,-0.06306350,1.99000000,-48.79000000,-0.25000000
315,0,0.75800000,0.02300000,0.65900000,-0.00000000,0.32000000,0.05000000,0.02244322,-0.16829251,-0.06299586,1.99000000,-48.79000000,-0.25000000
316,0,0.75100000,0.02400000,0.65800000,0.21000000,0.09000000,-0.07000000,0.02272047,-0.16817369,-0.06308828,1.99000000,-48.79000000,-0.24000000
317,0,0.75300000,0.01700000,0.65800000,0.28000000,0.00000000,-0.02000000,0.02309320,-0.16817369,-0.06311490,1.99000000,-48.79000000,-0.24000000
318,0,0.75000000,0.02200000,0.65500000,-0.15000000,0.39000000,-0.11000000,0.02285193,-0.16754639,-0.06329183,1.99000000,-48.79000000,-0.24000000
319,0,0.75200000,0.02500000,0.65800000,-0.13000000,0.01000000,0.05000000,0.01587482,-0.16700969,-0.06060833,1.99000000,-48.79000000,-0.24000000
320,0,0.75200000,0.02200000,0.65900000,-0.06000000,0.00000000,0.18000000,0.01579189,-0.16700969,-0.06035953,1.99000000,-48.79000000,-0.24000000
321,0,0.75600000,0.02300000,0.66100000,0.00000000,-0.12000000,-0.01000000,0.01579189,-0.16716726,-0.06037266,1.99000000,-48.79000000,-0.24000000
322,0,0.75600000,0.01900000,0.65700000,-0.06000000,-0.24000000,0.19000000,0.01571273,-0.16748388,-0.06012200,1.99000000,-48.79000000,-0.24000000
323,0,0.75100000,0.01900000,0.66100000,0.11000000,-0.20000000,-0.03000000,0.01586105,-0.16775355,-0.06016245,1.99000000,-48.79000000,-0.24000000
324,0,0.75400000,0.02300000,0.66600000,0.07000000,-0.17000000,-0.11000000,0.01595736,-0.16798743,-0.06031379,1.99000000,-48.79000000,-0.24000000
325,0,0.75000000,0.02000000,0.65700000,0.16000000,-0.21000000,-0.08000000,0.02472656,-0.17949702,-0.06469839,1.99000000,-48.79000000,-0.24000000
326,0,0.75600000,0.02100000,0.66000000,0.02000000,-0.06000000,0.16000000,0.02475385,-0.17957888,-0.06448009,1.99000000,-48.79000000,-0.24000000
327,0,0.74900000,0.02500000,0.65900000,0.25000000,0.13000000,0.19000000,0.02508170,-0.17940839,-0.06423093,1.99000000,-48.79000000,-0.24000000
328,0,0.75100000,0.02400000,0.66400000,0.24000000,0.00000000,-0.06000000,0.02540290,-0.17940839,-0.06431123,1.99000000,-48.79000000,-0.24000000
329,0,0.75000000,0.02100000,0.65900000,-0.27000000,-0.01000000,-0.07000000,0.02496662,-0.17942455,-0.06442434,1.99000000,-48.79000000,-0.25000000
330,0,0.75100000,0.02200000,0.65500000,0.10000000,0.08000000,0.06000000,0.02510761,-0.17931176,-0.06433975,2.00000000,-48.79000000,-0.25000000
331,0,0.74900000,0.02300000,0.66200000,0.05000000,-0.07000000,0.06000000,0.02777825,-0.18305066,-0.06113498,2.00000000,-48.79000000,-0.25000000
332,0,0.75800000,0.02200000,0.66000000,0.08000000,0.04000000,0.16000000,0.02788818,-0.18299569,-0.06091512,2.00000000,-48.78000000,-0.25000000
333,0,0.75000000,0.02100000,0.65700000,0.07000000,0.05000000,-0.08000000,0.02797906,-0.18293078,-0.06101899,2.00000000,-48.78000000,-0.25000000
334,0,0.75000000,0.02000000,0.66100000,-0.07000000,0.03000000,-0.17000000,0.02789113,-0.18289309,-0.06123252,2.00000000,-48.78000000,-0.25000000
335,0,0.75200000,0.02000000,0.66300000,0.05000000,-0.11000000,-0.05000000,0.02795837,-0.18304102,-0.06129976,2.00000000,-48.78000000,-0.25000000
336,0,0.74800000,0.02200000,0.65500000,0.27000000,-0.14000000,-0.11000000,0.02834187,-0.18323987,-0.06145600,2.00000000,-48.78000000,-0.25000000
337,0,0.75300000,0.02300000,0.66000000,-0.13000000,-0.07000000,-0.09000000,0.02131939,-0.18702121,-0.06631772,2.00000000,-48.78000000,-0.25000000
338,0,0.75400000,0.01900000,0.65900000,-0.32000000,0.01000000,-0.09000000,0.02087570,-0.18700734,-0.06644250,2.00000000,-48.78000000,-0.25000000
339,0,0.75200000,0.02600000,0.65900000,0.17000000,0.07000000,-0.12000000,0.02110310,-0.18691371,-0.06660302,2.00000000,-48.78000000,-0.25000000
340,0,0.74300000,0.02400000,0.65700000,0.21000000,-0.20000000,0.12000000,0.02136733,-0.18716536,-0.06645203,2.00000000,-48.78000000,-0.25000000
341,0,0.75100000,0.02100000,0.66000000,-0.14000000,-0.21000000,-0.14000000,0.02119034,-0.18743084,-0.06662902,2.00000000,-48.78000000,-0.25000000
342,0,0.75400000,0.02100000,0.66000000,0.08000000,-0.18000000,-0.09000000,0.02129356,-0.18766307,-0.06674513,2.00000000,-48.78000000,-0.25000000
343,0,0.75200000,0.02200000,0.66000000,0.01000000,-0.02000000,-0.03000000,0.02184178,-0.18875951,-0.06838980,2.00000000,-48.78000000,-0.25000000
344,0,0.75200000,0.02100000,0.66100000,0.19000000,0.05000000,-0.26000000,0.02210173,-0.18869110,-0.06874552,2.00000000,-48.78000000,-0.25000000
345,0,0.75000000,0.01700000,0.65700000,-0.05000000,-0.00000000,-0.15000000,0.02203569,-0.18869110,-0.06894362,2.00000000,-48.78000000,-0.25000000
346,0,0.75000000,0.01900000,0.65600000,-0.20000000,-0.08000000,-0.13000000,0.02175801,-0.18880218,-0.06912411,2.00000000,-48.78000000,-0.25000000
347,0,0.75200000,0.02200000,0.66100000,0.15000000,-0.24000000,-0.25000000,0.02195844,-0.18912287,-0.06945816,2.00000000,-48.78000000,-0.25000000
348,0,0.75200000,0.02500000,0.65700000,0.03000000,0.17000000,0.13000000,0.02199946,-0.18889044,-0.06928043,2.00000000,-48.78000000,-0.25000000
349,0,0.75000000,0.01900000,0.66600000,-0.18000000,-0.06000000,0.04000000,0.01230074,-0.19212335,-0.06712516,2.00000000,-48.78000000,-0.25000000
350,0,0.75200000,0.02400000,0.66000000,-0.13000000,-0.14000000,0.06000000,0.01211433,-0.19232410,-0.06703912,2.00000000,-48.78000000,-0.25000000
351,0,0.75400000,0.02400000,0.66000000,-0.10000000,0.05000000,0.01000000,0.01198044,-0.19225716,-0.06702573,2.00000000,-48.78000000,-0.25000000
352,0,0.75100000,0.02400000,0.66700000,0.03000000,0.19000000,0.18000000,0.01202039,-0.19200419,-0.06678608,2.00000000,-48.78000000,-0.25000000
353,0,0.75200000,0.02200000,0.66200000,0.05000000,0.07000000,0.10000000,0.01208696,-0.19191099,-0.06665293,2.00000000,-48.78000000,-0.25000000
354,0,0.75300000,0.02300000,0.65700000,0.04000000,0.07000000,-0.01000000,0.01214226,-0.19181422,-0.06666676,2.00000000,-48.77000000,-0.25000000
355,0,0.75100000,0.02200000,0.66000000,-0.04000000,-0.07000000,0.08000000,0.00998779,-0.19558454,-0.06235782,2.00000000,-48.77000000,-0.25000000
356,0,0.75200000,0.02500000,0.65900000,0.05000000,-0.02000000,0.08000000,0.01005963,-0.19561327,-0.06224288,2.00000000,-48.77000000,-0.25000000
357,0,0.75500000,0.01600000,0.65400000,-0.07000000,0.14000000,0.13000000,0.00996613,-0.19542627,-0.06206923,2.00000000,-48.77000000,-0.25000000
358,0,0.75100000,0.02200000,0.65600000,0.18000000,0.17000000,-0.20000000,0.01030827,-0.19510314,-0.06244939,2.00000000,-48.77000000,-0.25000000
359,0,0.75200000,0.02600000,0.65900000,0.15000000,0.10000000,0.06000000,0.01051678,-0.19496413,-0.06236598,2.00000000,-48.77000000,-0.25000000
360,0,0.75500000,0.02000000,0.66100000,0.14000000,0.02000000,0.09000000,0.01070432,-0.19493734,-0.06224542,2.00000000,-48.77000000,-0.25000000
361,0,0.74800000,0.02500000,0.65900000,-0.00000000,0.12000000,-0.04000000,0.01070432,-0.18847041,-0.06440106,2.00000000,-48.77000000,-0.25000000
362,0,0.75100000,0.02100000,0.66000000,0.48000000,0.15000000,-0.08000000,0.01133963,-0.18827188,-0.06450695,2.00000000,-48.77000000,-0.25000000
363,0,0.75000000,0.02500000,0.65800000,-0.09000000,0.17000000,0.05000000,0.01122484,-0.18805506,-0.06444318,2.00000000,-48.77000000,-0.25000000
364,0,0.75300000,0.02200000,0.66000000,0.18000000,0.08000000,0.09000000,0.01146407,-0.18794874,-0.06432357,2.00000000,-48.77000000,-0.25000000
365,0,0.75400000,0.02200000,0.66000000,-0.08000000,-0.23000000,-0.08000000,0.01136286,-0.18823972,-0.06442478,2.00000000,-48.77000000,-0.25000000
366,0,0.75500000,0.02600000,0.66400000,0.05000000,0.06000000,0.29000000,0.01142756,-0.18816208,-0.06404952,2.00000000,-48.77000000,-0.25000000
367,0,0.74700000,0.02200000,0.65900000,-0.02000000,-0.17000000,-0.01000000,0.01034543,-0.19736016,-0.06459058,2.00000000,-48.77000000,-0.24000000
368,0,0.75300000,0.01900000,0.66300000,-0.05000000,-0.22000000,-0.22000000,0.01025915,-0.19773978,-0.06497020,2.00000000,-48.77000000,-0.25000000
369,0,0.74500000,0.02400000,0.66100000,0.10000000,-0.10000000,0.02000000,0.01038908,-0.19786970,-0.06494421,2.00000000,-48.77000000,-0.25000000
370,0,0.75000000,0.02600000,0.66100000,0.20000000,-0.07000000,0.29000000,0.01063982,-0.19795746,-0.06458064,2.00000000,-48.77000000,-0.25000000
371,0,0.75200000,0.02100000,0.66300000,0.04000000,-0.12000000,0.11000000,0.01069104,-0.19811114,-0.06443977,2.00000000,-48.77000000,-0.25000000
372,0,0.74700000,0.02600000,0.65900000,0.10000000,-0.13000000,-0.08000000,0.01082273,-0.19828234,-0.06454512,2.00000000,-48.77000000,-0.25000000
373,0,0.74800000,0.02100000,0.65700000,0.03000000,0.18000000,-0.11000000,0.01243778,-0.18859203,-0.07046697,2.00000000,-48.77000000,-0.25000000
374,0,0.75100000,0.03000000,0.66200000,-0.08000000,-0.07000000,-0.10000000,0.01232227,-0.18869311,-0.07061137,2.00000000,-48.77000000,-0.25000000
375,0,0.74600000,0.02500000,0.65700000,0.19000000,0.08000000,0.01000000,0.01258113,-0.18858412,-0.07059774,2.00000000,-48.77000000,-0.25000000
376,0,0.74600000,0.01700000,0.66100000,-0.15000000,-0.11000000,0.11000000,0.01238438,-0.18872840,-0.07045346,2.00000000,-48.77000000,-0.25000000
377,0,0.75000000,0.01800000,0.66100000,-0.04000000,-0.05000000,0.14000000,0.01233144,-0.18879457,-0.07026816,2.00000000,-48.77000000,-0.25000000
378,0,0.75100000,0.02300000,0.66100000,-0.10000000,-0.18000000,-0.09000000,0.01218719,-0.18905423,-0.07039799,2.00000000,-48.77000000,-0.25000000
379,0,0.75000000,0.02300000,0.65700000,0.13000000,0.10000000,0.00000000,0.01926437,-0.18361024,-0.07039799,2.00000000,-48.77000000,-0.25000000
380,0,0.74900000,0.02100000,0.65600000,-0.06000000,-0.05000000,-0.11000000,0.01918160,-0.18367922,-0.07054975,2.00000000,-48.77000000,-0.25000000
381,0,0.75500000,0.02100000,0.65800000,0.02000000,-0.19000000,0.20000000,0.01920828,-0.18393269,-0.07028294,2.00000000,-48.77000000,-0.25000000
382,0,0.75400000,0.02200000,0.66000000,0.17000000,0.11000000,-0.28000000,0.01943215,-0.18378783,-0.07065166,2.00000000,-48.77000000,-0.25000000
383,0,0.74900000,0.02400000,0.66200000,-0.02000000,0.15000000,0.34000000,0.01940529,-0.18358640,-0.07019509,2.00000000,-48.77000000,-0.25000000
384,0,0.75300000,0.02000000,0.66000000,0.18000000,-0.08000000,0.35000000,0.01965804,-0.18369873,-0.06970363,2.00000000,-48.77000000,-0.25000000
385,0,0.74800000,0.01900000,0.66000000,-0.06000000,-0.12000000,0.01000000,0.01642483,-0.19016515,-0.06916477,2.00000000,-48.77000000,-0.24000000
386,0,0.75200000,0.02000000,0.65700000,-0.10000000,0.06000000,0.05000000,0.01628182,-0.19007934,-0.06909326,2.00000000,-48.77000000,-0.24000000
387,0,0.74900000,0.02400000,0.65900000,-0.00000000,0.14000000,0.37000000,0.01628182,-0.18986840,-0.06853579,2.00000000,-48.77000000,-0.24000000
388,0,0.74300000,0.01900000,0.65700000,-0.06000000,-0.12000000,-0.02000000,0.01619332,-0.19004540,-0.06856529,2.00000000,-48.77000000,-0.24000000
389,0,0.74900000,0.02200000,0.66100000,0.07000000,-0.06000000,-0.07000000,0.01631089,-0.19014617,-0.06868286,2.00000000,-48.77000000,-0.24000000
390,0,0.75100000,0.02400000,0.66200000,-0.08000000,0.04000000,-0.22000000,0.01618724,-0.19008435,-0.06902287,2.00000000,-48.77000000,-0.24000000
391,0,0.75300000,0.02300000,0.65900000,0.06000000,0.09000000,-0.09000000,0.01937098,-0.18530874,-0.07379848,1.99000000,-48.77000000,-0.24000000
392,0,0.75300000,0.02000000,0.66300000,0.20000000,-0.34000000,0.08000000,0.01965949,-0.18579920,-0.07368308,1.99000000,-48.77000000,-0.24000000
393,0,0.75100000,0.02200000,0.65700000,0.34000000,0.06000000,-0.02000000,0.02011120,-0.18571949,-0.07370965,1.99000000,-48.77000000,-0.24000000
394,0,0.75000000,0.02000000,0.66000000,0.06000000,0.09000000,-0.04000000,0.02019076,-0.18560015,-0.07376269,1.99000000,-48.77000000,-0.24000000
395,0,0.74500000,0.02400000,0.65400000,-0.20000000,0.08000000,0.10000000,0.01993926,-0.18549955,-0.07363694,1.99000000,-48.77000000,-0.24000000
396,0,0.75600000,0.02700000,0.66000000,0.04000000,-0.16000000,-0.03000000,0.01998956,-0.18570076,-0.07367466,2.00000000,-48.77000000,-0.24000000
397,0,0.74800000,0.02100000,0.65800000,-0.04000000,-0.22000000,-0.01000000,0.01780402,-0.19772122,-0.07422105,2.00000000,-48.77000000,-0.24000000
398,0,0.74800000,0.01900000,0.65900000,-0.04000000,0.19000000,0.21000000,0.01775082,-0.19746852,-0.07394175,2.00000000,-48.77000000,-0.24000000
399,0,0.75000000,0.02400000,0.65600000,-0.17000000,-0.03000000,-0.07000000,0.01753752,-0.19750616,-0.07402957,2.00000000,-48.77000000,-0.24000000
400,0,0.75000000,0.02900000,0.65400000,0.03000000,0.12000000,0.11000000,0.01757486,-0.19735680,-0.07389266,2.00000000,-48.76000000,-0.24000000
401,0,0.75200000,0.02300000,0.66000000,0.03000000,0.19000000,0.01000000,0.01761270,-0.19711720,-0.07388005,2.00000000,-48.76000000,-0.24000000
402,0,0.75200000,0.02100000,0.66300000,0.02000000,0.02000000,-0.22000000,0.01763848,-0.19709141,-0.07416368,2.00000000,-48.76000000,-0.24000000
403,0,0.74800000,0.01800000,0.66000000,-0.27000000,0.18000000,0.22000000,0.00300338,-0.18733468,-0.06223878,2.00000000,-48.76000000,-0.24000000
404,0,0.75500000,0.02400000,0.65900000,0.06000000,-0.05000000,-0.20000000,0.00309188,-0.18740842,-0.06253377,1.99000000,-48.76000000,-0.24000000
405,0,0.75500000,0.02300000,0.66600000,-0.35000000,-0.20000000,0.08000000,0.00259341,-0.18769326,-0.06241984,1.99000000,-48.76000000,-0.24000000
406,0,0.74500000,0.02100000,0.65700000,0.06000000,0.15000000,0.04000000,0.00267768,-0.18748260,-0.06236366,1.99000000,-48.76000000,-0.24000000
407,0,0.74800000,0.01800000,0.66000000,-0.14000000,0.23000000,0.35000000,0.00248070,-0.18715899,-0.06187121,1.99000000,-48.76000000,-0.24000000
408,0,0.75400000,0.02200000,0.66100000,-0.14000000,-0.15000000,0.09000000,0.00228268,-0.18737115,-0.06174391,1.99000000,-48.76000000,-0.24000000
409,0,0.75300000,0.02300000,0.65600000,0.11000000,-0.08000000,0.03000000,0.00828586,-0.19173710,-0.06010668,1.99000000,-48.76000000,-0.24000000
410,0,0.75600000,0.02400000,0.66300000,0.02000000,-0.05000000,0.08000000,0.00833391,-0.19185722,-0.05991449,1.99000000,-48.76000000,-0.24000000
411,0,0.75400000,0.02100000,0.65500000,-0.19000000,-0.12000000,0.14000000,0.00803088,-0.19204860,-0.05969121,1.99000000,-48.76000000,-0.24000000
412,0,0.74800000,0.02100000,0.66000000,-0.07000000,-0.05000000,-0.12000000,0.00791612,-0.19213058,-0.05988794,1.99000000,-48.76000000,-0.24000000
413,0,0.75400000,0.02000000,0.65800000,-0.11000000,0.09000000,-0.10000000,0.00775623,-0.19199976,-0.06003329,1.99000000,-48.76000000,-0.24000000
414,0,0.75200000,0.02400000,0.65500000,-0.37000000,-0.03000000,-0.01000000,0.00718791,-0.19204584,-0.06004865,1.99000000,-48.76000000,-0.24000000
415,0,0.75000000,0.02000000,0.65700000,-0.07000000,0.15000000,-0.19000000,0.00355269,-0.18425608,-0.06991568,1.99000000,-48.76000000,-0.24000000
416,0,0.75500000,0.02000000,0.65500000,0.13000000,0.14000000,-0.27000000,0.00376669,-0.18402562,-0.07036014,1.99000000,-48.76000000,-0.24000000
417,0,0.75100000,0.02400000,0.66100000,0.14000000,-0.02000000,-0.11000000,0.00398530,-0.18405685,-0.07053191,1.99000000,-48.76000000,-0.24000000
418,0,0.75100000,0.02000000,0.66000000,-0.09000000,0.04000000,-0.18000000,0.00385230,-0.18399774,-0.07079791,1.99000000,-48.76000000,-0.24000000
419,0,0.74500000,0.02100000,0.65600000,0.08000000,0.23000000,-0.10000000,0.00396945,-0.18366091,-0.07094436,1.99000000,-48.76000000,-0.24000000
420,0,0.75500000,0.02300000,0.65800000,0.22000000,-0.03000000,-0.02000000,0.00428629,-0.18370412,-0.07097316,1.99000000,-48.76000000,-0.24000000
421,0,0.75200000,0.02600000,0.65200000,-0.12000000,0.32000000,-0.04000000,-0.00204236,-0.16682771,-0.07308271,1.99000000,-48.76000000,-0.24000000
422,0,0.75100000,0.02400000,0.65600000,-0.17000000,-0.17000000,-0.26000000,-0.00222408,-0.16700943,-0.07336064,1.99000000,-48.76000000,-0.24000000
423,0,0.75200000,0.01800000,0.65800000,0.05000000,0.16000000,0.21000000,-0.00217122,-0.16684027,-0.07313861,1.99000000,-48.76000000,-0.24000000
424,0,0.75500000,0.02300000,0.66200000,-0.09000000,0.05000000,0.13000000,-0.00226234,-0.16678965,-0.07300700,1.99000000,-48.76000000,-0.24000000
425,0,0.75200000,0.02700000,0.65900000,-0.01000000,0.03000000,0.16000000,-0.00227531,-0.16675073,-0.07279942,1.99000000,-48.76000000,-0.24000000
426,0,0.75300000,0.02800000,0.66400000,0.13000000,-0.24000000,0.24000000,-0.00214147,-0.16699783,-0.07255232,1.99000000,-48.76000000,-0.24000000
427,0,0.74800000,0.02400000,0.65300000,-0.01000000,0.06000000,-0.04000000,-0.00269405,-0.16368233,-0.07476266,1.99000000,-48.76000000,-0.24000000
428,0,0.75100000,0.02300000,0.65900000,-0.02000000,-0.08000000,0.16000000,-0.00271549,-0.16376809,-0.07459113,1.99000000,-48.76000000,-0.23000000
429,0,0.75100000,0.02200000,0.66000000,0.02000000,-0.18000000,-0.03000000,-0.00269513,-0.16395131,-0.07462167,1.98000000,-48.76000000,-0.23000000
430,0,0.74900000,0.02300000,0.65800000,-0.02000000,-0.08000000,-0.01000000,-0.00271548,-0.16403271,-0.07463184,1.98000000,-48.76000000,-0.23000000
431,0,0.75500000,0.02400000,0.66000000,-0.08000000,-0.07000000,-0.31000000,-0.00279729,-0.16410430,-0.07494887,1.98000000,-48.76000000,-0.23000000
432,0,0.75200000,0.02000000,0.65800000,0.04000000,-0.00000000,-0.11000000,-0.00275670,-0.16410430,-0.07506050,1.98000000,-48.76000000,-0.23000000
433,0,0.75100000,0.02800000,0.66000000,-0.10000000,-0.10000000,-0.10000000,-0.00868072,-0.17002832,-0.08098452,1.99000000,-48.76000000,-0.24000000
434,0,0.75100000,0.01900000,0.65600000,-0.16000000,0.08000000,-0.00000000,-0.00885770,-0.16993983,-0.08098452,1.99000000,-48.76000000,-0.24000000
435,0,0.75700000,0.02200000,0.66200000,-0.14000000,-0.18000000,-0.20000000,-0.00903793,-0.17017155,-0.08124199,1.99000000,-48.76000000,-0.24000000
436,0,0.75200000,0.02400000,0.66200000,-0.12000000,-0.03000000,0.14000000,-0.00918185,-0.17020753,-0.08107408,1.99000000,-48.76000000,-0.24000000
437,0,0.75000000,0.02200000,0.65500000,0.07000000,-0.15000000,0.20000000,-0.00909770,-0.17038786,-0.08083364,1.98000000,-48.76000000,-0.24000000
438,0,0.75300000,0.02400000,0.65900000,0.25000000,0.14000000,0.03000000,-0.00879953,-0.17022088,-0.08079786,1.99000000,-48.76000000,-0.24000000
439,0,0.75200000,0.02200000,0.65700000,-0.21000000,0.10000000,-0.32000000,-0.00904999,-0.17010162,-0.08117951,1.99000000,-48.76000000,-0.24000000
440,0,0.75300000,0.02400000,0.65900000,-0.04000000,0.08000000,-0.10000000,-0.01122498,-0.16575163,-0.08661699,1.98000000,-48.76000000,-0.24000000
441,0,0.75000000,0.02700000,0.65500000,-0.13000000,0.14000000,0.01000000,-0.01136782,-0.16559781,-0.08660601,1.99000000,-48.76000000,-0.24000000
442,0,0.75200000,0.02600000,0.66000000,0.04000000,-0.17000000,-0.12000000,-0.01131267,-0.16583218,-0.08677144,1.99000000,-48.76000000,-0.24000000
443,0,0.75500000,0.01600000,0.66000000,0.10000000,-0.07000000,-0.04000000,-0.01118709,-0.16592009,-0.08682168,1.99000000,-48.76000000,-0.24000000
444,0,0.75400000,0.02400000,0.65600000,0.03000000,0.03000000,0.14000000,-0.01114989,-0.16588289,-0.08664809,1.99000000,-48.76000000,-0.24000000
445,0,0.75000000,0.02300000,0.66600000,-0.19000000,0.08000000,0.14000000,-0.01138895,-0.16578223,-0.08647194,1.99000000,-48.76000000,-0.24000000
446,0,0.75100000,0.02000000,0.65800000,-0.03000000,-0.06000000,0.01000000,-0.01302586,-0.16905604,-0.08592631,1.99000000,-48.76000000,-0.24000000
447,0,0.74700000,0.02100000,0.66100000,-0.07000000,0.00000000,-0.03000000,-0.01310267,-0.16905604,-0.08595923,1.99000000,-48.76000000,-0.24000000
448,0,0.74900000,0.02200000,0.65800000,-0.02000000,-0.04000000,0.14000000,-0.01312915,-0.16910901,-0.08577383,1.99000000,-48.76000000,-0.24000000
449,0,0.75400000,0.02700000,0.65900000,0.00000000,-0.00000000,-0.17000000,-0.01312915,-0.16910901,-0.08598700,1.99000000,-48.75000000,-0.24000000
450,0,0.75100000,0.02500000,0.65600000,-0.03000000,0.04000000,0.17000000,-0.01316611,-0.16905973,-0.08577756,1.99000000,-48.75000000,-0.24000000
451,0,0.75200000,0.02200000,0.66000000,0.30000000,0.22000000,-0.10000000,-0.01278921,-0.16878333,-0.08590319,1.99000000,-48.75000000,-0.24000000
452,0,0.75300000,0.02000000,0.66100000,0.20000000,-0.12000000,-0.14000000,-0.00176200,-0.17539966,-0.09362224,1.99000000,-48.75000000,-0.24000000
453,0,0.75600000,0.02300000,0.65500000,0.00000000,0.00000000,-0.01000000,-0.00176200,-0.17539966,-0.09363306,1.99000000,-48.75000000,-0.24000000
454,0,0.75300000,0.02000000,0.65900000,-0.01000000,0.21000000,0.06000000,-0.00177230,-0.17518335,-0.09357126,1.99000000,-48.75000000,-0.24000000
455,0,0.75600000,0.02200000,0.65500000,-0.10000000,-0.12000000,0.12000000,-0.00187474,-0.17530627,-0.09344833,1.99000000,-48.75000000,-0.24000000
456,0,0.75700000,0.01900000,0.66100000,-0.18000000,-0.15000000,0.12000000,-0.00207075,-0.17546961,-0.09331766,1.98000000,-48.75000000,-0.24000000
457,0,0.74900000,0.02400000,0.65700000,0.11000000,0.01000000,0.18000000,-0.00195773,-0.17545934,-0.09313272,1.98000000,-48.76000000,-0.24000000
458,0,0.75000000,0.02500000,0.66000000,-0.22000000,0.11000000,0.18000000,-0.01413896,-0.16936872,-0.08316626,1.98000000,-48.76000000,-0.24000000
459,0,0.75300000,0.02200000,0.65800000,0.09000000,0.24000000,-0.13000000,-0.01404254,-0.16911161,-0.08330553,1.98000000,-48.76000000,-0.24000000
460,0,0.75000000,0.02600000,0.65900000,-0.18000000,0.05000000,0.03000000,-0.01422611,-0.16906061,-0.08327493,1.98000000,-48.76000000,-0.24000000
461,0,0.75600000,0.02600000,0.65800000,-0.02000000,-0.02000000,-0.03000000,-0.01424799,-0.16908249,-0.08330775,1.98000000,-48.76000000,-0.24000000
462,0,0.75200000,0.02300000,0.66200000,-0.25000000,0.08000000,-0.04000000,-0.01452434,-0.16899406,-0.08335197,1.98000000,-48.76000000,-0.24000000
463,0,0.75700000,0.02000000,0.66200000,0.12000000,-0.07000000,0.01000000,-0.01439845,-0.16906750,-0.08334148,1.98000000,-48.76000000,-0.24000000
464,0,0.75600000,0.02700000,0.65600000,-0.09000000,-0.02000000,0.07000000,-0.01938591,-0.17017582,-0.07946234,1.98000000,-48.76000000,-0.24000000
465,0,0.75400000,0.02500000,0.66100000,0.06000000,0.04000000,0.02000000,-0.01932281,-0.17013376,-0.07944131,1.98000000,-48.76000000,-0.24000000
466,0,0.75300000,0.02400000,0.65800000,0.14000000,-0.38000000,-0.18000000,-0.01918281,-0.17051378,-0.07962132,1.98000000,-48.76000000,-0.24000000
467,0,0.75100000,0.02500000,0.65900000,-0.15000000,0.12000000,0.23000000,-0.01933550,-0.17039163,-0.07938720,1.98000000,-48.76000000,-0.24000000
468,0,0.75400000,0.02200000,0.65900000,-0.11000000,0.05000000,0.21000000,-0.01944647,-0.17034118,-0.07917534,1.98000000,-48.76000000,-0.24000000
469,0,0.75800000,0.02500000,0.66100000,-0.04000000,-0.13000000,0.07000000,-0.01948657,-0.17047150,-0.07910517,1.98000000,-48.76000000,-0.24000000
470,0,0.74800000,0.02300000,0.66400000,0.16000000,0.09000000,0.17000000,-0.01048817,-0.16540990,-0.06954438,1.98000000,-48.76000000,-0.24000000
471,0,0.75900000,0.02600000,0.65800000,-0.00000000,0.07000000,0.10000000,-0.01048817,-0.16533705,-0.06944030,1.98000000,-48.76000000,-0.23000000
472,0,0.75400000,0.02600000,0.65800000,-0.15000000,-0.11000000,-0.05000000,-0.01064029,-0.16544860,-0.06949100,1.98000000,-48.76000000,-0.23000000
473,0,0.74900000,0.02500000,0.65700000,-0.06000000,-0.05000000,-0.23000000,-0.01070132,-0.16549946,-0.06972496,1.98000000,-48.76000000,-0.23000000
474,0,0.75500000,0.02300000,0.65800000,0.14000000,0.01000000,0.01000000,-0.01055778,-0.16548920,-0.06971470,1.98000000,-48.76000000,-0.23000000
475,0,0.74500000,0.01800000,0.65800000,0.13000000,0.00000000,-0.03000000,-0.01042601,-0.16548920,-0.06974511,1.98000000,-48.76000000,-0.23000000
476,0,0.75000000,0.02800000,0.66000000,0.19000000,0.03000000,-0.14000000,0.00010819,-0.16382591,-0.07750715,1.98000000,-48.76000000,-0.24000000
477,0,0.75200000,0.02400000,0.65800000,-0.03000000,0.27000000,0.16000000,0.00007679,-0.16354328,-0.07733967,1.98000000,-48.76000000,-0.24000000
478,0,0.75000000,0.02400000,0.65900000,0.14000000,-0.30000000,0.32000000,0.00021903,-0.16384808,-0.07701455,1.98000000,-48.76000000,-0.24000000
479,0,0.75600000,0.02600000,0.65900000,-0.19000000,-0.14000000,0.30000000,0.00002762,-0.16398912,-0.07671233,1.98000000,-48.76000000,-0.24000000
480,0,0.75600000,0.02500000,0.65900000,-0.12000000,0.12000000,0.01000000,-0.00009439,-0.16386712,-0.07670216,1.98000000,-48.76000000,-0.24000000
481,0,0.74800000,0.02500000,0.66000000,0.19000000,-0.08000000,0.31000000,0.00009698,-0.16394769,-0.07638993,1.98000000,-48.76000000,-0.23000000
482,0,0.75100000,0.02400000,0.65900000,-0.13000000,-0.12000000,0.02000000,-0.00714572,-0.17063326,-0.07527567,1.98000000,-48.76000000,-0.23000000
483,0,0.74500000,0.02500000,0.65900000,-0.01000000,0.11000000,0.05000000,-0.00715613,-0.17051874,-0.07522362,1.98000000,-48.76000000,-0.24000000
484,0,0.75100000,0.02100000,0.65600000,0.10000000,-0.08000000,0.20000000,-0.00705481,-0.17059979,-0.07502099,1.98000000,-48.76000000,-0.23000000
485,0,0.74700000,0.02000000,0.65900000,0.43000000,-0.04000000,-0.17000000,-0.00662552,-0.17063973,-0.07519071,1.98000000,-48.76000000,-0.23000000
486,0,0.74900000,0.02500000,0.66400000,-0.04000000,-0.18000000,0.18000000,-0.00666562,-0.17082016,-0.07501028,1.98000000,-48.76000000,-0.23000000
487,0,0.75300000,0.02000000,0.65900000,-0.18000000,-0.07000000,-0.25000000,-0.00684669,-0.17089058,-0.07526177,1.98000000,-48.76000000,-0.24000000
488,0,0.75300000,0.02500000,0.66200000,-0.14000000,-0.20000000,0.23000000,-0.01472840,-0.18215016,-0.06231326,1.98000000,-48.76000000,-0.24000000
489,0,0.75000000,0.02000000,0.66300000,-0.02000000,-0.03000000,0.01000000,-0.01474972,-0.18218215,-0.06230260,1.98000000,-48.76000000,-0.23000000
490,0,0.75100000,0.02600000,0.66000000,0.04000000,-0.11000000,-0.03000000,-0.01470950,-0.18229275,-0.06233276,1.98000000,-48.76000000,-0.24000000
491,0,0.74700000,0.02400000,0.66300000,-0.02000000,-0.06000000,-0.10000000,-0.01472940,-0.18235244,-0.06243224,1.98000000,-48.76000000,-0.24000000
492,0,0.74800000,0.02600000,0.65900000,0.22000000,-0.18000000,-0.05000000,-0.01451102,-0.18253112,-0.06248187,1.98000000,-48.76000000,-0.24000000
493,0,0.75400000,0.02900000,0.65600000,0.33000000,-0.35000000,0.04000000,-0.01417605,-0.18288638,-0.06244127,1.98000000,-48.76000000,-0.24000000
494,0,0.75300000,0.02300000,0.65700000,-0.04000000,-0.04000000,-0.00000000,-0.01639391,-0.18510424,-0.06244127,1.98000000,-48.76000000,-0.24000000
495,0,0.75400000,0.02300000,0.65900000,-0.12000000,-0.24000000,-0.17000000,-0.01652193,-0.18536027,-0.06262263,1.98000000,-48.76000000,-0.24000000
496,0,0.75300000,0.02500000,0.65700000,-0.15000000,0.10000000,-0.03000000,-0.01667243,-0.18525994,-0.06265273,1.98000000,-48.76000000,-0.24000000
497,0,0.75200000,0.02300000,0.65900000,-0.08000000,-0.01000000,-0.11000000,-0.01675211,-0.18526990,-0.06276228,1.98000000,-48.76000000,-0.24000000
498,0,0.74800000,0.02100000,0.65600000,0.01000000,0.03000000,-0.06000000,-0.01674217,-0.18524008,-0.06282191,1.98000000,-48.76000000,-0.24000000
499,0,0.75100000,0.02200000,0.66100000,-0.11000000,0.14000000,0.02000000,-0.01685328,-0.18509868,-0.06280171,1.98000000,-48.76000000,-0.24000000
500,0,0.75000000,0.02400000,0.65700000,0.01000000,0.06000000,0.26000000,-0.01629630,-0.18175682,-0.04832035,1.98000000,-48.76000000,-0.24000000
501,0,0.75200000,0.02500000,0.65900000,-0.21000000,0.25000000,-0.14000000,-0.01651917,-0.18149150,-0.04846894,1.98000000,-48.76000000,-0.24000000
502,0,0.75200000,0.02300000,0.65600000,-0.03000000,-0.16000000,0.13000000,-0.01655032,-0.18165760,-0.04833397,1.98000000,-48.76000000,-0.24000000
503,0,0.75100000,0.02900000,0.65900000,0.09000000,0.08000000,-0.24000000,-0.01645360,-0.18157163,-0.04859189,1.98000000,-48.76000000,-0.24000000
504,0,0.74800000,0.02400000,0.65500000,-0.07000000,-0.02000000,0.28000000,-0.01652864,-0.18159307,-0.04829172,1.98000000,-48.76000000,-0.24000000
505,0,0.74500000,0.02200000,0.66100000,0.19000000,0.02000000,0.14000000,-0.01632835,-0.18157199,-0.04814414,1.98000000,-48.76000000,-0.24000000
506,0,0.75700000,0.02400000,0.65800000,0.07000000,-0.09000000,0.08000000,-0.01240501,-0.18661629,-0.04366032,1.98000000,-48.76000000,-0.24000000
507,0,0.75300000,0.02700000,0.65600000,-0.28000000,-0.03000000,0.06000000,-0.01270438,-0.18664837,-0.04359617,1.98000000,-48.76000000,-0.24000000
508,0,0.75300000,0.02600000,0.65800000,0.20000000,-0.20000000,0.10000000,-0.01250165,-0.18685109,-0.04349480,1.98000000,-48.76000000,-0.24000000
509,0,0.75300000,0.02700000,0.65700000,-0.02000000,0.10000000,-0.17000000,-0.01252181,-0.18675032,-0.04366611,1.98000000,-48.76000000,-0.24000000
510,0,0.74800000,0.02300000,0.65500000,-0.07000000,-0.18000000,0.09000000,-0.01259296,-0.18693329,-0.04357462,1.98000000,-48.76000000,-0.24000000
511,0,0.75300000,0.02200000,0.65500000,-0.04000000,-0.26000000,-0.05000000,-0.01263313,-0.18719441,-0.04362484,1.98000000,-48.76000000,-0.24000000
512,0,0.75600000,0.02000000,0.65800000,-0.00000000,-0.01000000,0.08000000,-0.01263313,-0.18774971,-0.03918250,1.98000000,-48.76000000,-0.24000000
513,0,0.75100000,0.02300000,0.65800000,0.05000000,-0.13000000,0.12000000,-0.01257985,-0.18788823,-0.03905463,1.98000000,-48.76000000,-0.24000000
514,0,0.75200000,0.02200000,0.65500000,0.00000000,0.10000000,-0.03000000,-0.01257985,-0.18778663,-0.03908511,1.98000000,-48.76000000,-0.24000000
515,0,0.75400000,0.02600000,0.65900000,0.21000000,-0.08000000,-0.01000000,-0.01236779,-0.18786742,-0.03909521,1.98000000,-48.76000000,-0.24000000
516,0,0.75100000,0.02100000,0.66100000,-0.04000000,-0.01000000,-0.17000000,-0.01240845,-0.18787758,-0.03926801,1.98000000,-48.76000000,-0.24000000
517,0,0.74700000,0.02400000,0.66200000,0.10000000,-0.14000000,0.05000000,-0.01230759,-0.18801879,-0.03921758,1.99000000,-48.76000000,-0.25000000
518,0,0.75200000,0.02400000,0.66200000,0.16000000,-0.09000000,-0.15000000,-0.00328944,-0.19309150,-0.04767210,1.99000000,-48.76000000,-0.25000000
519,0,0.75200000,0.02200000,0.65900000,-0.11000000,0.31000000,0.03000000,-0.00340608,-0.19276279,-0.04764029,1.99000000,-48.76000000,-0.25000000
520,0,0.75600000,0.02100000,0.65500000,-0.05000000,-0.27000000,-0.01000000,-0.00345614,-0.19303312,-0.04765030,1.99000000,-48.76000000,-0.25000000
521,0,0.75100000,0.02400000,0.65800000,0.09000000,0.06000000,-0.12000000,-0.00336509,-0.19297242,-0.04777170,1.99000000,-48.76000000,-0.25000000
522,0,0.75000000,0.02200000,0.65700000,-0.05000000,-0.11000000,0.05000000,-0.00341590,-0.19308420,-0.04772089,1.98000000,-48.76000000,-0.25000000
523,0,0.75100000,0.02000000,0.65700000,-0.18000000,-0.31000000,-0.12000000,-0.00359663,-0.19339547,-0.04784138,1.98000000,-48.76000000,-0.25000000
524,0,0.75200000,0.02600000,0.65800000,0.16000000,-0.15000000,0.20000000,0.00528537,-0.20172235,-0.03673888,1.98000000,-48.76000000,-0.24000000
525,0,0.74800000,0.02000000,0.66100000,0.08000000,0.16000000,-0.14000000,0.00536970,-0.20155368,-0.03688646,1.98000000,-48.76000000,-0.25000000
526,0,0.75200000,0.02200000,0.66200000,-0.05000000,-0.03000000,-0.04000000,0.00531961,-0.20158374,-0.03692653,1.98000000,-48.76000000,-0.25000000
527,0,0.75100000,0.02400000,0.65600000,-0.05000000,0.09000000,0.14000000,0.00526843,-0.20149162,-0.03678323,1.98000000,-48.76000000,-0.24000000
528,0,0.75000000,0.02500000,0.65800000,0.00000000,-0.04000000,0.05000000,0.00526843,-0.20153205,-0.03673269,1.98000000,-48.76000000,-0.24000000
529,0,0.74900000,0.01700000,0.65900000,0.00000000,0.11000000,0.05000000,0.00526843,-0.20142102,-0.03668222,1.98000000,-48.76000000,-0.24000000
530,0,0.75100000,0.02800000,0.65900000,-0.05000000,0.26000000,-0.15000000,0.00249741,-0.18701175,-0.04499526,1.98000000,-48.76000000,-0.25000000
531,0,0.74800000,0.02600000,0.66000000,-0.12000000,-0.23000000,-0.04000000,0.00236851,-0.18725881,-0.04503823,1.99000000,-48.76000000,-0.25000000
532,0,0.74900000,0.02300000,0.66500000,-0.13000000,0.09000000,-0.10000000,0.00223590,-0.18716701,-0.04514023,1.99000000,-48.76000000,-0.25000000
533,0,0.74500000,0.02300000,0.65500000,-0.09000000,-0.02000000,0.04000000,0.00214356,-0.18718753,-0.04509919,1.98000000,-48.76000000,-0.25000000
534,0,0.75200000,0.02500000,0.66200000,0.13000000,-0.08000000,0.26000000,0.00227592,-0.18726898,-0.04483447,1.98000000,-48.76000000,-0.25000000
535,0,0.74700000,0.02000000,0.65900000,-0.09000000,0.10000000,-0.01000000,0.00217412,-0.18715586,-0.04484579,1.98000000,-48.76000000,-0.25000000
536,0,0.74800000,0.02300000,0.66100000,-0.20000000,0.04000000,0.17000000,-0.00908312,-0.18490442,-0.03527713,1.98000000,-48.76000000,-0.25000000
537,0,0.74900000,0.02500000,0.66200000,-0.02000000,0.16000000,0.14000000,-0.00910440,-0.18473419,-0.03512818,1.98000000,-48.76000000,-0.24000000
538,0,0.75400000,0.02100000,0.66200000,-0.11000000,0.03000000,0.02000000,-0.00921690,-0.18470351,-0.03510773,1.98000000,-48.76000000,-0.24000000
539,0,0.75500000,0.02700000,0.66100000,-0.17000000,0.08000000,-0.03000000,-0.00938836,-0.18462282,-0.03513799,1.98000000,-48.76000000,-0.24000000
540,0,0.74500000,0.02400000,0.66000000,0.11000000,0.06000000,0.04000000,-0.00927778,-0.18456250,-0.03509778,1.98000000,-48.76000000,-0.24000000
541,0,0.75400000,0.02400000,0.66000000,0.10000000,-0.27000000,-0.03000000,-0.00917709,-0.18483438,-0.03512798,1.98000000,-48.77000000,-0.24000000
542,0,0.75100000,0.02400000,0.65700000,0.01000000,-0.11000000,-0.20000000,-0.00862269,-0.19093273,-0.04621590,1.98000000,-48.77000000,-0.24000000
543,0,0.74800000,0.02000000,0.66400000,-0.02000000,0.30000000,0.22000000,-0.00864468,-0.19060282,-0.04597397,1.98000000,-48.77000000,-0.24000000
544,0,0.74800000,0.02700000,0.65800000,0.11000000,-0.22000000,0.04000000,-0.00850284,-0.19088651,-0.04592239,1.98000000,-48.77000000,-0.24000000
545,0,0.75500000,0.02000000,0.66200000,-0.11000000,-0.05000000,0.20000000,-0.00863464,-0.19094641,-0.04568276,1.98000000,-48.77000000,-0.24000000
546,0,0.75400000,0.02300000,0.66100000,-0.09000000,-0.17000000,-0.01000000,-0.00874179,-0.19114880,-0.04569466,1.98000000,-48.77000000,-0.24000000
547,0,0.75000000,0.01900000,0.66300000,0.18000000,-0.22000000,-0.02000000,-0.00852741,-0.19141082,-0.04571848,1.98000000,-48.77000000,-0.24000000
548,0,0.75600000,0.02600000,0.66000000,0.10000000,-0.12000000,0.16000000,-0.00305748,-0.19797474,-0.03696660,1.98000000,-48.77000000,-0.24000000
549,0,0.75500000,0.02700000,0.66100000,0.20000000,0.03000000,-0.10000000,-0.00281241,-0.19793798,-0.03708913,1.98000000,-48.77000000,-0.24000000
550,0,0.75000000,0.01900000,0.65900000,-0.16000000,0.32000000,-0.03000000,-0.00300461,-0.19755358,-0.03712517,1.98000000,-48.76000000,-0.24000000
551,0,0.75200000,0.02500000,0.65700000,-0.08000000,-0.11000000,0.08000000,-0.00310100,-0.19768611,-0.03702878,1.98000000,-48.76000000,-0.24000000
552,0,0.75200000,0.02100000,0.66000000,-0.06000000,0.13000000,0.17000000,-0.00318041,-0.19751405,-0.03680378,1.97000000,-48.76000000,-0.24000000
553,0,0.74900000,0.02500000,0.65800000,-0.14000000,-0.10000000,0.07000000,-0.00340613,-0.19767527,-0.03669092,1.97000000,-48.76000000,-0.24000000
554,0,0.75100000,0.01800000,0.66400000,-0.06000000,-0.03000000,0.16000000,-0.00688044,-0.19941243,-0.02742611,1.97000000,-48.76000000,-0.23000000
555,0,0.75100000,0.02200000,0.65600000,0.03000000,-0.05000000,0.12000000,-0.00684817,-0.19946619,-0.02729706,1.97000000,-48.76000000,-0.23000000
556,0,0.74600000,0.02000000,0.66200000,0.13000000,0.01000000,0.26000000,-0.00671386,-0.19945586,-0.02702844,1.97000000,-48.76000000,-0.23000000
557,0,0.75000000,0.02300000,0.65700000,-0.03000000,-0.02000000,-0.22000000,-0.00674435,-0.19947619,-0.02725201,1.97000000,-48.76000000,-0.23000000
558,0,0.75400000,0.02000000,0.66100000,-0.06000000,-0.10000000,-0.11000000,-0.00680558,-0.19957824,-0.02736427,1.97000000,-48.76000000,-0.23000000
559,0,0.75100000,0.02200000,0.65900000,-0.09000000,-0.30000000,-0.10000000,-0.00689642,-0.19988104,-0.02746520,1.97000000,-48.76000000,-0.23000000
560,0,0.74600000,0.01800000,0.66000000,-0.01000000,0.00000000,-0.06000000,-0.00690654,-0.19988104,-0.02752592,1.97000000,-48.76000000,-0.23000000
561,0,0.75300000,0.02400000,0.66200000,0.08000000,0.11000000,0.01000000,-0.00246741,-0.19377723,-0.02697103,1.96000000,-48.76000000,-0.23000000
562,0,0.75300000,0.02300000,0.66100000,-0.11000000,0.05000000,-0.03000000,-0.00259034,-0.19372135,-0.02700455,1.96000000,-48.76000000,-0.23000000
563,0,0.75100000,0.02200000,0.65600000,-0.14000000,-0.04000000,-0.01000000,-0.00273425,-0.19376247,-0.02701483,1.96000000,-48.76000000,-0.23000000
564,0,0.75400000,0.02100000,0.66100000,0.00000000,0.03000000,-0.09000000,-0.00273425,-0.19373175,-0.02710700,1.96000000,-48.76000000,-0.23000000
565,0,0.74800000,0.02000000,0.65900000,0.09000000,-0.16000000,0.01000000,-0.00264311,-0.19389377,-0.02709688,1.96000000,-48.76000000,-0.23000000
566,0,0.75400000,0.02400000,0.66000000,-0.03000000,0.01000000,-0.03000000,-0.00267368,-0.19388358,-0.02712744,1.96000000,-48.76000000,-0.23000000
567,0,0.75100000,0.02600000,0.65500000,-0.09000000,0.08000000,0.19000000,-0.00764556,-0.18946414,-0.01663125,1.96000000,-48.76000000,-0.23000000
568,0,0.75400000,0.02300000,0.66000000,0.12000000,0.01000000,-0.12000000,-0.00751754,-0.18945347,-0.01675926,1.96000000,-48.76000000,-0.23000000
569,0,0.75300000,0.01900000,0.65800000,-0.01000000,0.04000000,0.01000000,-0.00752797,-0.18941174,-0.01674883,1.96000000,-48.76000000,-0.23000000
570,0,0.74900000,0.02100000,0.66100000,0.05000000,-0.01000000,-0.15000000,-0.00747676,-0.18942198,-0.01690249,1.96000000,-48.76000000,-0.22000000
571,0,0.75300000,0.02500000,0.66400000,0.31000000,-0.19000000,-0.03000000,-0.00711154,-0.18964583,-0.01693783,1.96000000,-48.76000000,-0.23000000
572,0,0.74700000,0.02100000,0.65900000,-0.02000000,0.27000000,0.08000000,-0.00713212,-0.18936790,-0.01685548,1.96000000,-48.76000000,-0.22000000
573,0,0.75300000,0.02600000,0.65800000,-0.01000000,0.05000000,0.18000000,-0.00769410,-0.18655804,-0.00673997,1.96000000,-48.76000000,-0.23000000
574,0,0.75000000,0.02700000,0.66100000,-0.07000000,-0.04000000,-0.04000000,-0.00776997,-0.18660140,-0.00678333,1.96000000,-48.76000000,-0.22000000
575,0,0.75100000,0.02100000,0.65700000,-0.23000000,0.02000000,-0.08000000,-0.00800420,-0.18658103,-0.00686480,1.96000000,-48.76000000,-0.22000000
576,0,0.74900000,0.02300000,0.65900000,-0.20000000,0.12000000,0.07000000,-0.00820616,-0.18645985,-0.00679412,1.96000000,-48.76000000,-0.22000000
577,0,0.74700000,0.02200000,0.65700000,-0.00000000,0.15000000,-0.00000000,-0.00820616,-0.18630849,-0.00679412,1.96000000,-48.76000000,-0.22000000
578,0,0.75300000,0.02000000,0.65800000,0.31000000,-0.05000000,-0.24000000,-0.00788462,-0.18636035,-0.00704305,1.96000000,-48.76000000,-0.22000000
579,0,0.75100000,0.02300000,0.65800000,0.02000000,0.15000000,0.27000000,-0.00677639,-0.17804856,0.00791817,1.96000000,-48.76000000,-0.22000000
580,0,0.75400000,0.02100000,0.65800000,0.08000000,-0.11000000,0.09000000,-0.00668969,-0.17816777,0.00801570,1.96000000,-48.76000000,-0.22000000
581,0,0.75400000,0.02000000,0.65900000,-0.04000000,-0.05000000,0.12000000,-0.00673025,-0.17821848,0.00813740,1.95000000,-48.76000000,-0.22000000
582,0,0.75400000,0.01700000,0.66100000,-0.06000000,-0.27000000,0.11000000,-0.00679080,-0.17849093,0.00824840,1.95000000,-48.76000000,-0.22000000
583,0,0.75000000,0.02700000,0.66000000,-0.02000000,0.08000000,0.07000000,-0.00681092,-0.17841045,0.00831881,1.95000000,-48.76000000,-0.22000000
584,0,0.75100000,0.02500000,0.66000000,0.03000000,-0.03000000,-0.00000000,-0.00678047,-0.17844090,0.00831881,1.95000000,-48.76000000,-0.22000000
585,0,0.75200000,0.02400000,0.66100000,0.12000000,0.39000000,-0.15000000,-0.00012626,-0.15681473,0.00000105,1.96000000,-48.76000000,-0.22000000
586,0,0.74500000,0.02700000,0.65900000,-0.01000000,-0.06000000,-0.08000000,-0.00013701,-0.15687926,-0.00008499,1.96000000,-48.76000000,-0.22000000
587,0,0.75200000,0.02500000,0.65700000,-0.08000000,0.05000000,-0.08000000,-0.00021829,-0.15682846,-0.00016627,1.96000000,-48.76000000,-0.22000000
588,0,0.75400000,0.02700000,0.65700000,0.29000000,0.24000000,-0.14000000,0.00009045,-0.15657295,-0.00031532,1.96000000,-48.76000000,-0.22000000
589,0,0.75200000,0.02300000,0.65900000,-0.24000000,0.02000000,0.02000000,-0.00015316,-0.15655265,-0.00029502,1.96000000,-48.76000000,-0.22000000
590,0,0.75000000,0.02500000,0.66100000,0.20000000,-0.04000000,0.16000000,0.00004999,-0.15659328,-0.00013250,1.96000000,-48.76000000,-0.22000000
591,0,0.75200000,0.02300000,0.66100000,-0.01000000,-0.22000000,-0.04000000,-0.00051332,-0.16898621,-0.00238576,1.96000000,-48.76000000,-0.22000000
592,0,0.75100000,0.02000000,0.66200000,0.07000000,0.05000000,0.06000000,-0.00043931,-0.16893335,-0.00232233,1.96000000,-48.76000000,-0.22000000
593,0,0.74900000,0.02600000,0.66300000,-0.09000000,0.32000000,0.12000000,-0.00053093,-0.16860761,-0.00220018,1.96000000,-48.75000000,-0.22000000
594,0,0.74500000,0.02500000,0.65700000,-0.00000000,-0.15000000,0.13000000,-0.00053093,-0.16876652,-0.00206246,1.96000000,-48.75000000,-0.22000000
595,0,0.74800000,0.02300000,0.65900000,0.02000000,-0.11000000,0.06000000,-0.00051042,-0.16887931,-0.00200094,1.96000000,-48.75000000,-0.22000000
596,0,0.75300000,0.02400000,0.65700000,-0.32000000,0.21000000,-0.08000000,-0.00083295,-0.16866765,-0.00208157,1.96000000,-48.75000000,-0.22000000
597,0,0.75300000,0.02200000,0.66000000,-0.07000000,0.23000000,0.17000000,-0.00471308,-0.15591863,0.00734162,1.96000000,-48.75000000,-0.22000000
598,0,0.75600000,0.01700000,0.65800000,0.24000000,-0.01000000,-0.04000000,-0.00445660,-0.15592932,0.00729887,1.96000000,-48.75000000,-0.22000000
599,0,0.75700000,0.02600000,0.65900000,-0.23000000,0.08000000,-0.24000000,-0.00468929,-0.15584838,0.00705606,1.96000000,-48.75000000,-0.22000000
600,0,0.75200000,0.02200000,0.65900000,-0.42000000,-0.10000000,0.11000000,-0.00511411,-0.15594953,0.00716732,1.96000000,-48.75000000,-0.23000000
601,0,0.75100000,0.02400000,0.65800000,0.26000000,0.07000000,-0.10000000,-0.00484995,-0.15587841,0.00706572,1.96000000,-48.75000000,-0.22000000
602,0,0.75200000,0.01900000,0.65900000,-0.13000000,0.06000000,-0.02000000,-0.00498160,-0.15581765,0.00704547,1.96000000,-48.75000000,-0.22000000
603,0,0.74800000,0.02700000,0.65700000,-0.08000000,0.14000000,0.13000000,-0.00941495,-0.14805928,0.01424967,1.96000000,-48.75000000,-0.23000000
604,0,0.74900000,0.02200000,0.65500000,0.11000000,0.05000000,0.10000000,-0.00929724,-0.14800577,0.01435668,1.96000000,-48.75000000,-0.22000000
605,0,0.75000000,0.02000000,0.66000000,0.05000000,-0.03000000,0.02000000,-0.00924676,-0.14803606,0.01437687,1.96000000,-48.75000000,-0.22000000
606,0,0.75100000,0.02900000,0.66400000,0.00000000,-0.06000000,-0.05000000,-0.00924676,-0.14809656,0.01432645,1.96000000,-48.75000000,-0.23000000
607,0,0.75300000,0.02200000,0.65600000,0.06000000,0.09000000,0.13000000,-0.00918567,-0.14800493,0.01445881,1.96000000,-48.75000000,-0.23000000
608,0,0.75200000,0.02200000,0.66200000,0.16000000,0.06000000,0.03000000,-0.00902360,-0.14794415,0.01448920,1.96000000,-48.75000000,-0.23000000
609,0,0.75200000,0.02400000,0.65700000,0.30000000,0.07000000,-0.07000000,0.00796089,-0.14398110,0.01052615,1.96000000,-48.75000000,-0.23000000
610,0,0.75300000,0.02500000,0.65800000,0.18000000,-0.15000000,-0.07000000,0.00816540,-0.14415153,0.01044662,1.96000000,-48.75000000,-0.23000000
611,0,0.75400000,0.02800000,0.65700000,0.07000000,0.04000000,-0.13000000,0.00823742,-0.14411037,0.01031287,1.96000000,-48.75000000,-0.23000000
612,0,0.74800000,0.02500000,0.65700000,0.02000000,-0.03000000,-0.07000000,0.00825776,-0.14414088,0.01024168,1.96000000,-48.75000000,-0.23000000
613,0,0.75400000,0.02000000,0.66200000,-0.08000000,-0.07000000,0.27000000,0.00816189,-0.14422477,0.01056525,1.96000000,-48.75000000,-0.23000000
614,0,0.75300000,0.02600000,0.65600000,-0.04000000,-0.04000000,-0.14000000,0.00811966,-0.14426700,0.01041743,1.96000000,-48.75000000,-0.23000000
615,0,0.75200000,0.02200000,0.65900000,-0.02000000,0.17000000,-0.02000000,0.00702053,-0.13492443,0.00931830,1.96000000,-48.75000000,-0.23000000
616,0,0.74900000,0.02600000,0.65900000,0.09000000,0.10000000,-0.10000000,0.00711714,-0.13481709,0.00921096,1.96000000,-48.75000000,-0.23000000
617,0,0.74600000,0.02500000,0.66300000,0.01000000,0.35000000,0.34000000,0.00712737,-0.13445923,0.00955859,1.97000000,-48.75000000,-0.23000000
618,0,0.75600000,0.02000000,0.66400000,0.13000000,-0.24000000,-0.06000000,0.00726118,-0.13470628,0.00949683,1.97000000,-48.75000000,-0.23000000
619,0,0.75000000,0.02800000,0.66100000,0.14000000,-0.27000000,0.09000000,0.00740292,-0.13497963,0.00958795,1.97000000,-48.75000000,-0.23000000
620,0,0.75000000,0.02400000,0.65800000,0.01000000,0.24000000,0.13000000,0.00741306,-0.13473642,0.00971969,1.97000000,-48.75000000,-0.23000000
621,0,0.75300000,0.02300000,0.65800000,-0.13000000,0.30000000,0.42000000,0.00019571,-0.11808102,0.03303725,1.97000000,-48.75000000,-0.23000000
622,0,0.75200000,0.02000000,0.66100000,-0.08000000,-0.09000000,-0.28000000,0.00011163,-0.11817561,0.03274296,1.96000000,-48.75000000,-0.23000000
623,0,0.75100000,0.01900000,0.65800000,0.08000000,-0.08000000,0.11000000,0.00019154,-0.11825552,0.03285283,1.96000000,-48.75000000,-0.23000000
624,0,0.75100000,0.02800000,0.65800000,-0.07000000,0.13000000,-0.01000000,0.00012017,-0.11812297,0.03284263,1.96000000,-48.75000000,-0.23000000
625,0,0.75200000,0.02200000,0.65800000,0.12000000,0.30000000,-0.15000000,0.00024097,-0.11782096,0.03269163,1.96000000,-48.75000000,-0.23000000
626,0,0.75000000,0.02500000,0.66000000,0.08000000,-0.04000000,-0.08000000,0.00032097,-0.11786096,0.03261162,1.97000000,-48.75000000,-0.23000000
627,0,0.75600000,0.02400000,0.66300000,-0.13000000,0.12000000,-0.11000000,-0.00700838,-0.11109540,0.02640986,1.97000000,-48.75000000,-0.23000000
628,0,0.75200000,0.02300000,0.66300000,0.04000000,0.08000000,-0.09000000,-0.00696631,-0.11101126,0.02631520,1.97000000,-48.75000000,-0.23000000
629,0,0.75300000,0.02200000,0.66000000,-0.07000000,0.07000000,0.01000000,-0.00703742,-0.11094016,0.02632536,1.97000000,-48.75000000,-0.23000000
630,0,0.75200000,0.02000000,0.65900000,0.10000000,0.05000000,-0.15000000,-0.00693558,-0.11088924,0.02617260,1.97000000,-48.75000000,-0.23000000
631,0,0.75300000,0.02500000,0.65700000,-0.01000000,-0.10000000,0.01000000,-0.00694553,-0.11098879,0.02618256,1.97000000,-48.75000000,-0.23000000
632,0,0.75200000,0.02700000,0.65900000,-0.01000000,-0.16000000,0.13000000,-0.00695551,-0.11114849,0.02631231,1.97000000,-48.75000000,-0.23000000
633,0,0.75400000,0.02100000,0.65500000,-0.12000000,0.10000000,-0.40000000,-0.01361067,-0.10560253,0.00412847,1.97000000,-48.75000000,-0.23000000
634,0,0.75300000,0.02500000,0.65500000,0.16000000,0.02000000,-0.37000000,-0.01344292,-0.10558156,0.00374055,1.97000000,-48.75000000,-0.23000000
635,0,0.75300000,0.02500000,0.66000000,-0.02000000,0.02000000,0.07000000,-0.01346326,-0.10556122,0.00381174,1.97000000,-48.75000000,-0.24000000
636,0,0.75400000,0.02500000,0.65600000,0.04000000,0.19000000,-0.00000000,-0.01342260,-0.10536809,0.00381174,1.97000000,-48.75000000,-0.24000000
637,0,0.75500000,0.02500000,0.66000000,-0.12000000,0.29000000,-0.01000000,-0.01354389,-0.10507497,0.00380163,1.97000000,-48.75000000,-0.24000000
638,0,0.75000000,0.02200000,0.65600000,-0.31000000,-0.08000000,-0.05000000,-0.01385441,-0.10515510,0.00375155,1.97000000,-48.75000000,-0.24000000
639,0,0.74800000,0.02700000,0.65800000,0.03000000,-0.03000000,0.15000000,-0.01218721,-0.10682231,0.01208758,1.97000000,-48.75000000,-0.24000000
640,0,0.75200000,0.02400000,0.66400000,-0.25000000,-0.15000000,-0.07000000,-0.01244908,-0.10697943,0.01201426,1.97000000,-48.75000000,-0.24000000
641,0,0.75100000,0.01900000,0.65800000,0.05000000,-0.23000000,0.07000000,-0.01239836,-0.10721273,0.01208526,1.97000000,-48.75000000,-0.24000000
642,0,0.74900000,0.02400000,0.66100000,-0.01000000,0.18000000,-0.05000000,-0.01240853,-0.10702968,0.01203442,1.97000000,-48.75000000,-0.24000000
643,0,0.75600000,0.02600000,0.66000000,-0.05000000,-0.01000000,0.13000000,-0.01245834,-0.10703964,0.01216392,1.97000000,-48.75000000,-0.24000000
644,0,0.75500000,0.02300000,0.66100000,-0.30000000,0.37000000,-0.11000000,-0.01276507,-0.10666134,0.01205146,1.97000000,-48.75000000,-0.24000000
645,0,0.75000000,0.02600000,0.65800000,-0.08000000,0.05000000,-0.27000000,-0.01727501,-0.10384263,-0.00316957,1.97000000,-48.75000000,-0.24000000
646,0,0.75000000,0.02200000,0.65500000,-0.07000000,-0.12000000,-0.05000000,-0.01735037,-0.10397181,-0.00322340,1.97000000,-48.75000000,-0.24000000
647,0,0.75100000,0.01800000,0.66000000,-0.04000000,-0.28000000,0.01000000,-0.01739098,-0.10425610,-0.00321325,1.97000000,-48.75000000,-0.24000000
648,0,0.75400000,0.02600000,0.66100000,-0.16000000,-0.04000000,-0.10000000,-0.01755148,-0.10429622,-0.00331356,1.97000000,-48.75000000,-0.24000000
649,0,0.75600000,0.02400000,0.66100000,0.29000000,0.11000000,-0.08000000,-0.01726105,-0.10418606,-0.00339368,1.97000000,-48.75000000,-0.24000000
650,0,0.75300000,0.02700000,0.65700000,0.04000000,-0.12000000,-0.10000000,-0.01722091,-0.10430649,-0.00349404,1.97000000,-48.75000000,-0.24000000
651,0,0.75200000,0.02100000,0.66200000,-0.22000000,-0.27000000,-0.03000000,-0.02941620,-0.11927344,-0.00515703,1.97000000,-48.75000000,-0.24000000
652,0,0.75000000,0.02300000,0.65900000,0.08000000,0.00000000,0.21000000,-0.02933095,-0.11927344,-0.00493326,1.97000000,-48.75000000,-0.24000000
653,0,0.75100000,0.02000000,0.65800000,-0.13000000,-0.21000000,0.00000000,-0.02946520,-0.11949031,-0.00493326,1.97000000,-48.75000000,-0.24000000
654,0,0.75300000,0.02200000,0.66100000,-0.02000000,0.20000000,0.13000000,-0.02948515,-0.11929082,-0.00480359,1.97000000,-48.75000000,-0.24000000
655,0,0.74800000,0.02500000,0.65800000,-0.31000000,0.11000000,-0.08000000,-0.02979250,-0.11918176,-0.00488291,1.97000000,-48.75000000,-0.24000000
656,0,0.75000000,0.02400000,0.66000000,-0.02000000,0.12000000,0.14000000,-0.02981242,-0.11906222,-0.00474344,1.97000000,-48.75000000,-0.24000000
657,0,0.75300000,0.02500000,0.65700000,-0.05000000,-0.02000000,-0.11000000,-0.03259626,-0.12017576,-0.01086789,1.97000000,-48.75000000,-0.24000000
658,0,0.74600000,0.02100000,0.65800000,0.19000000,-0.09000000,0.17000000,-0.03239185,-0.12027258,-0.01068499,1.97000000,-48.75000000,-0.24000000
659,0,0.75400000,0.01500000,0.66100000,0.18000000,-0.01000000,-0.10000000,-0.03220906,-0.12028274,-0.01078655,1.97000000,-48.75000000,-0.24000000
660,0,0.74700000,0.02000000,0.66100000,0.17000000,0.11000000,0.22000000,-0.03203739,-0.12017166,-0.01056439,1.97000000,-48.75000000,-0.24000000
661,0,0.75500000,0.02100000,0.65900000,0.06000000,-0.22000000,-0.04000000,-0.03197695,-0.12039329,-0.01060469,1.97000000,-48.75000000,-0.24000000
662,0,0.75100000,0.02700000,0.65700000,-0.02000000,-0.19000000,0.02000000,-0.03199721,-0.12058583,-0.01058442,1.97000000,-48.75000000,-0.24000000
663,0,0.74800000,0.02300000,0.65800000,0.01000000,-0.02000000,-0.02000000,-0.03143460,-0.12171106,-0.01170964,1.97000000,-48.75000000,-0.24000000
664,0,0.74900000,0.02100000,0.66100000,-0.00000000,-0.16000000,0.17000000,-0.03143460,-0.12188239,-0.01152760,1.98000000,-48.75000000,-0.24000000
665,0,0.75500000,0.02100000,0.65600000,0.27000000,0.10000000,0.26000000,-0.03115835,-0.12178008,-0.01126158,1.97000000,-48.75000000,-0.24000000
666,0,0.75300000,0.02400000,0.65900000,0.03000000,0.01000000,-0.09000000,-0.03112783,-0.12176990,-0.01135315,1.97000000,-48.75000000,-0.24000000
667,0,0.74800000,0.02500000,0.65700000,0.05000000,0.03000000,0.00000000,-0.03107595,-0.12173878,-0.01135315,1.97000000,-48.75000000,-0.24000000
668,0,0.74900000,0.02600000,0.66100000,-0.08000000,-0.11000000,-0.15000000,-0.03115733,-0.12185067,-0.01150573,1.97000000,-48.75000000,-0.24000000
669,0,0.75100000,0.01900000,0.65900000,0.22000000,-0.07000000,0.13000000,-0.01897090,-0.12572817,-0.00430466,1.97000000,-48.75000000,-0.24000000
670,0,0.75300000,0.02300000,0.66300000,0.20000000,-0.12000000,-0.07000000,-0.01875573,-0.12585727,-0.00437997,1.97000000,-48.75000000,-0.24000000
671,0,0.75500000,0.01900000,0.66100000,0.19000000,0.08000000,-0.14000000,-0.01856170,-0.12577557,-0.00452294,1.98000000,-48.75000000,-0.24000000
672,0,0.74700000,0.02200000,0.65600000,-0.18000000,-0.04000000,-0.13000000,-0.01874423,-0.12581613,-0.00465477,1.98000000,-48.75000000,-0.24000000
673,0,0.74700000,0.02300000,0.66400000,0.17000000,0.15000000,0.11000000,-0.01857005,-0.12566245,-0.00454207,1.98000000,-48.75000000,-0.24000000
674,0,0.74900000,0.01800000,0.65500000,-0.11000000,0.06000000,-0.12000000,-0.01868145,-0.12560169,-0.00466359,1.98000000,-48.75000000,-0.24000000
675,0,0.74800000,0.02200000,0.66100000,0.09000000,-0.14000000,-0.17000000,-0.01368328,-0.13337661,-0.01410457,1.98000000,-48.75000000,-0.24000000
676,0,0.74800000,0.02500000,0.66200000,0.20000000,0.08000000,-0.02000000,-0.01346816,-0.13329056,-0.01412608,1.98000000,-48.75000000,-0.24000000
677,0,0.74800000,0.02700000,0.66000000,-0.02000000,0.08000000,0.19000000,-0.01348848,-0.13320926,-0.01393300,1.97000000,-48.75000000,-0.24000000
678,0,0.75600000,0.02100000,0.65500000,0.06000000,-0.11000000,-0.05000000,-0.01342808,-0.13332000,-0.01398333,1.97000000,-48.75000000,-0.24000000
679,0,0.75500000,0.02500000,0.66300000,0.06000000,0.00000000,-0.03000000,-0.01336716,-0.13332000,-0.01401379,1.97000000,-48.75000000,-0.24000000
680,0,0.75000000,0.02200000,0.65600000,0.02000000,-0.05000000,0.08000000,-0.01334701,-0.13337040,-0.01393316,1.97000000,-48.75000000,-0.24000000
681,0,0.75100000,0.02300000,0.66000000,-0.02000000,0.20000000,-0.20000000,-0.01453302,-0.12151024,-0.02579331,1.97000000,-48.75000000,-0.24000000
682,0,0.74800000,0.02200000,0.65900000,0.07000000,0.10000000,0.07000000,-0.01445684,-0.12140142,-0.02571713,1.97000000,-48.75000000,-0.24000000
683,0,0.75100000,0.01900000,0.66200000,-0.20000000,0.03000000,0.04000000,-0.01466033,-0.12137089,-0.02567644,1.97000000,-48.74000000,-0.24000000
684,0,0.75200000,0.02200000,0.66100000,0.22000000,-0.21000000,0.11000000,-0.01443817,-0.12158295,-0.02556536,1.98000000,-48.75000000,-0.24000000
685,0,0.74900000,0.02700000,0.65600000,0.06000000,0.00000000,0.12000000,-0.01437525,-0.12158295,-0.02543952,1.98000000,-48.75000000,-0.24000000
686,0,0.75000000,0.02400000,0.65800000,-0.08000000,0.17000000,0.05000000,-0.01445697,-0.12140930,-0.02538844,1.98000000,-48.75000000,-0.24000000
687,0,0.74500000,0.02400000,0.66100000,-0.02000000,0.24000000,-0.29000000,-0.01447718,-0.12116678,-0.02568149,1.98000000,-48.74000000,-0.24000000
688,0,0.75500000,0.02200000,0.66100000,0.17000000,0.01000000,-0.20000000,-0.00506599,-0.12061318,-0.03675348,1.98000000,-48.75000000,-0.24000000
689,0,0.75400000,0.02400000,0.65600000,0.00000000,0.03000000,0.52000000,-0.00506599,-0.12058104,-0.03619640,1.98000000,-48.74000000,-0.24000000
690,0,0.74900000,0.02500000,0.65900000,-0.32000000,-0.05000000,0.13000000,-0.00539050,-0.12063174,-0.03606457,1.98000000,-48.74000000,-0.24000000
691,0,0.75200000,0.02300000,0.65800000,-0.23000000,0.04000000,0.01000000,-0.00562100,-0.12059165,-0.03605454,1.98000000,-48.74000000,-0.24000000
692,0,0.75300000,0.02700000,0.65700000,0.14000000,-0.20000000,-0.17000000,-0.00547886,-0.12079471,-0.03622714,1.98000000,-48.74000000,-0.24000000
693,0,0.75300000,0.02700000,0.66300000,0.02000000,0.07000000,0.00000000,-0.00545845,-0.12072328,-0.03622714,1.98000000,-48.74000000,-0.24000000
694,0,0.75200000,0.02500000,0.65600000,0.03000000,-0.01000000,-0.01000000,-0.00379339,-0.12127830,-0.03678216,1.98000000,-48.74000000,-0.24000000
695,0,0.75000000,0.01900000,0.65900000,0.18000000,0.23000000,0.25000000,-0.00360120,-0.12103272,-0.03651523,1.98000000,-48.74000000,-0.24000000
696,0,0.75500000,0.02400000,0.65900000,0.09000000,-0.02000000,-0.22000000,-0.00350965,-0.12105306,-0.03673901,1.98000000,-48.74000000,-0.24000000
697,0,0.75200000,0.02200000,0.66300000,-0.04000000,0.08000000,0.22000000,-0.00354991,-0.12097254,-0.03651759,1.98000000,-48.74000000,-0.24000000
698,0,0.75600000,0.01600000,0.66100000,-0.36000000,0.01000000,0.02000000,-0.00391790,-0.12096232,-0.03649714,1.98000000,-48.74000000,-0.24000000
699,0,0.75200000,0.02800000,0.65700000,0.02000000,-0.07000000,0.02000000,-0.00389745,-0.12103391,-0.03647669,1.98000000,-48.74000000,-0.24000000
700,0,0.74800000,0.03000000,0.65800000,0.26000000,-0.06000000,-0.37000000,0.01075593,-0.12441546,-0.05732958,1.98000000,-48.74000000,-0.24000000
701,0,0.74500000,0.02100000,0.66000000,0.13000000,0.16000000,-0.11000000,0.01089164,-0.12424843,-0.05744441,1.98000000,-48.74000000,-0.24000000
702,0,0.74900000,0.02700000,0.65800000,0.17000000,-0.08000000,-0.01000000,0.01106026,-0.12432779,-0.05745433,1.98000000,-48.74000000,-0.25000000
703,0,0.75000000,0.02700000,0.66500000,-0.14000000,-0.02000000,-0.04000000,0.01091672,-0.12434829,-0.05749534,1.98000000,-48.74000000,-0.24000000
704,0,0.75600000,0.02400000,0.65600000,-0.10000000,-0.08000000,0.04000000,0.01081460,-0.12442999,-0.05745449,1.98000000,-48.74000000,-0.24000000
705,0,0.75000000,0.02300000,0.66400000,-0.11000000,0.17000000,0.22000000,0.01070362,-0.12425849,-0.05723254,1.98000000,-48.74000000,-0.24000000
706,0,0.74800000,0.02000000,0.65700000,0.17000000,0.12000000,-0.05000000,0.02014120,-0.11759667,-0.06000830,1.98000000,-48.74000000,-0.24000000
707,0,0.75000000,0.02200000,0.65900000,0.11000000,-0.10000000,0.12000000,0.02025936,-0.11770409,-0.05987940,1.98000000,-48.75000000,-0.24000000
708,0,0.75100000,0.01900000,0.65700000,0.17000000,-0.22000000,0.07000000,0.02043240,-0.11792803,-0.05980814,1.98000000,-48.75000000,-0.24000000
709,0,0.74900000,0.02400000,0.65900000,0.09000000,-0.32000000,-0.15000000,0.02052397,-0.11825361,-0.05996076,1.98000000,-48.75000000,-0.24000000
710,0,0.75200000,0.02500000,0.65900000,0.24000000,-0.12000000,0.02000000,0.02076570,-0.11837447,-0.05994061,1.98000000,-48.75000000,-0.24000000
711,0,0.75300000,0.02300000,0.66200000,0.30000000,0.05000000,-0.12000000,0.02106785,-0.11832411,-0.06006148,1.98000000,-48.75000000,-0.24000000
712,0,0.75000000,0.02700000,0.65900000,-0.10000000,0.21000000,-0.23000000,0.01551286,-0.10665862,-0.07283797,1.98000000,-48.75000000,-0.24000000
713,0,0.75200000,0.01700000,0.65900000,0.06000000,-0.14000000,-0.06000000,0.01557736,-0.10680914,-0.07290248,1.98000000,-48.74000000,-0.24000000
714,0,0.75200000,0.02200000,0.65900000,-0.01000000,-0.16000000,0.13000000,0.01556677,-0.10697868,-0.07276472,1.98000000,-48.74000000,-0.24000000
715,0,0.74900000,0.02000000,0.65400000,0.08000000,0.03000000,-0.10000000,0.01564984,-0.10694753,-0.07286856,1.98000000,-48.75000000,-0.24000000
716,0,0.75700000,0.02500000,0.65900000,-0.15000000,-0.06000000,-0.06000000,0.01549855,-0.10700804,-0.07292908,1.98000000,-48.75000000,-0.24000000
717,0,0.74700000,0.02200000,0.65400000,-0.07000000,0.25000000,-0.18000000,0.01542800,-0.10675607,-0.07311050,1.98000000,-48.75000000,-0.24000000
718,0,0.75300000,0.02200000,0.66000000,0.17000000,0.04000000,0.00000000,0.02498388,-0.10450762,-0.07311050,1.98000000,-48.75000000,-0.24000000
719,0,0.74800000,0.02300000,0.65900000,0.17000000,0.14000000,-0.02000000,0.02516540,-0.10435814,-0.07313186,1.98000000,-48.75000000,-0.24000000
720,0,0.74700000,0.02300000,0.66000000,0.39000000,-0.35000000,0.02000000,0.02556313,-0.10471508,-0.07311146,1.98000000,-48.75000000,-0.24000000
721,0,0.75800000,0.02000000,0.65800000,0.21000000,0.15000000,-0.12000000,0.02577434,-0.10456421,-0.07323215,1.98000000,-48.75000000,-0.24000000
722,0,0.75300000,0.02400000,0.66000000,-0.02000000,0.02000000,-0.20000000,0.02575423,-0.10454411,-0.07343316,1.98000000,-48.75000000,-0.24000000
723,0,0.75600000,0.01700000,0.66000000,-0.07000000,-0.03000000,0.10000000,0.02568377,-0.10457431,-0.07333249,1.98000000,-48.75000000,-0.24000000
724,0,0.75000000,0.02300000,0.66200000,-0.07000000,0.02000000,0.23000000,0.02180208,-0.10346526,-0.06057837,1.98000000,-48.75000000,-0.24000000
725,0,0.75000000,0.02200000,0.65800000,-0.10000000,0.00000000,-0.03000000,0.02169602,-0.10346526,-0.06061019,1.98000000,-48.75000000,-0.24000000
726,0,0.75600000,0.02200000,0.66300000,0.10000000,0.08000000,-0.06000000,0.02179857,-0.10338322,-0.06067172,1.98000000,-48.75000000,-0.24000000
727,0,0.75000000,0.01800000,0.66200000,0.26000000,-0.13000000,-0.17000000,0.02206032,-0.10351409,-0.06084286,1.98000000,-48.75000000,-0.24000000
728,0,0.75000000,0.02300000,0.66000000,0.02000000,-0.07000000,-0.01000000,0.02208030,-0.10358402,-0.06085285,1.98000000,-48.75000000,-0.23000000
729,0,0.74900000,0.02600000,0.66400000,-0.04000000,-0.13000000,0.06000000,0.02204020,-0.10371434,-0.06079271,1.98000000,-48.75000000,-0.23000000
730,0,0.74800000,0.01900000,0.65900000,-0.23000000,0.26000000,0.04000000,0.00925230,-0.08925845,-0.05856872,1.98000000,-48.75000000,-0.23000000
731,0,0.75500000,0.02100000,0.65800000,-0.01000000,-0.04000000,-0.27000000,0.00924173,-0.08930073,-0.05885412,1.98000000,-48.75000000,-0.23000000
732,0,0.74800000,0.02000000,0.65800000,-0.22000000,-0.09000000,-0.07000000,0.00901737,-0.08939252,-0.05892551,1.98000000,-48.75000000,-0.23000000
733,0,0.75100000,0.02400000,0.65700000,0.16000000,-0.10000000,0.22000000,0.00918138,-0.08949502,-0.05869999,1.97000000,-48.75000000,-0.23000000
734,0,0.74900000,0.02300000,0.66000000,-0.09000000,0.09000000,0.16000000,0.00909022,-0.08940386,-0.05853793,1.97000000,-48.74000000,-0.23000000
735,0,0.74800000,0.02100000,0.66300000,-0.02000000,0.21000000,-0.23000000,0.00907007,-0.08919230,-0.05876963,1.97000000,-48.74000000,-0.23000000
736,0,0.75300000,0.01900000,0.66000000,0.12000000,-0.19000000,0.08000000,0.01582688,-0.09989058,-0.05426510,1.97000000,-48.74000000,-0.23000000
737,0,0.75600000,0.02000000,0.65800000,-0.09000000,0.08000000,-0.04000000,0.01572525,-0.09980024,-0.05431027,1.97000000,-48.74000000,-0.23000000
738,0,0.75400000,0.02600000,0.65800000,0.13000000,0.08000000,-0.01000000,0.01585993,-0.09971736,-0.05432063,1.98000000,-48.74000000,-0.23000000
739,0,0.75200000,0.01900000,0.66100000,0.13000000,0.07000000,-0.15000000,0.01599151,-0.09964650,-0.05447246,1.98000000,-48.74000000,-0.23000000
740,0,0.74800000,0.01900000,0.66000000,-0.25000000,-0.05000000,0.17000000,0.01573984,-0.09969684,-0.05430132,1.98000000,-48.74000000,-0.23000000
741,0,0.75200000,0.02200000,0.66100000,0.09000000,-0.09000000,-0.03000000,0.01583154,-0.09978854,-0.05433188,1.98000000,-48.74000000,-0.23000000
742,0,0.75300000,0.02600000,0.65900000,-0.19000000,0.22000000,0.02000000,0.00531451,-0.08761092,-0.05322483,1.98000000,-48.74000000,-0.23000000
743,0,0.74900000,0.02400000,0.65900000,0.00000000,0.12000000,-0.14000000,0.00531451,-0.08748131,-0.05337605,1.98000000,-48.74000000,-0.23000000
744,0,0.75200000,0.02300000,0.65900000,0.05000000,-0.08000000,0.20000000,0.00536769,-0.08756640,-0.05316331,1.98000000,-48.74000000,-0.23000000
745,0,0.74400000,0.02200000,0.65400000,-0.18000000,-0.11000000,-0.18000000,0.00518455,-0.08767832,-0.05334645,1.98000000,-48.74000000,-0.24000000
746,0,0.75300000,0.02600000,0.65800000,0.13000000,-0.10000000,-0.11000000,0.00531657,-0.08777987,-0.05345815,1.98000000,-48.74000000,-0.24000000
747,0,0.74900000,0.02700000,0.65900000,0.11000000,0.21000000,-0.02000000,0.00542906,-0.08756511,-0.05347861,1.98000000,-48.74000000,-0.24000000
748,0,0.75600000,0.02000000,0.66000000,0.27000000,-0.05000000,-0.21000000,0.02043695,-0.09034435,-0.06515141,1.98000000,-48.74000000,-0.24000000
749,0,0.75100000,0.02300000,0.65600000,-0.12000000,-0.07000000,0.11000000,0.02030739,-0.09041992,-0.06503265,1.98000000,-48.74000000,-0.24000000
750,0,0.75400000,0.02500000,0.65600000,-0.27000000,-0.11000000,0.23000000,0.02003114,-0.09053247,-0.06479732,1.98000000,-48.74000000,-0.23000000
751,0,0.75200000,0.02400000,0.66000000,-0.09000000,-0.02000000,0.11000000,0.01994041,-0.09055263,-0.06468643,1.98000000,-48.74000000,-0.23000000
752,0,0.74400000,0.01900000,0.65800000,-0.12000000,0.06000000,0.17000000,0.01981946,-0.09049216,-0.06451508,1.98000000,-48.74000000,-0.23000000
753,0,0.75000000,0.02300000,0.66200000,0.16000000,-0.08000000,-0.05000000,0.01998206,-0.09057346,-0.06456590,1.98000000,-48.74000000,-0.23000000
754,0,0.75100000,0.02600000,0.66000000,-0.37000000,0.05000000,-0.15000000,-0.00080855,-0.08776392,-0.07299452,1.98000000,-48.74000000,-0.23000000
755,0,0.75000000,0.01800000,0.66400000,0.00000000,0.25000000,0.17000000,-0.00080855,-0.08749680,-0.07281288,1.98000000,-48.74000000,-0.23000000
756,0,0.75200000,0.02200000,0.65900000,-0.07000000,-0.18000000,0.07000000,-0.00087987,-0.08768020,-0.07274156,1.98000000,-48.74000000,-0.23000000
757,0,0.75500000,0.01800000,0.65800000,0.09000000,0.13000000,-0.23000000,-0.00078899,-0.08754892,-0.07297382,1.98000000,-48.74000000,-0.24000000
758,0,0.75400000,0.02300000,0.65600000,-0.01000000,0.13000000,0.16000000,-0.00079915,-0.08741681,-0.07281122,1.98000000,-48.74000000,-0.23000000
759,0,0.75100000,0.02300000,0.65700000,-0.02000000,-0.28000000,0.12000000,-0.00081937,-0.08769996,-0.07268987,1.98000000,-48.74000000,-0.24000000
760,0,0.74900000,0.02500000,0.66100000,-0.11000000,0.14000000,0.11000000,-0.00691870,-0.07993718,-0.06659055,1.98000000,-48.74000000,-0.23000000
761,0,0.75100000,0.02400000,0.66100000,-0.08000000,-0.11000000,-0.02000000,-0.00700459,-0.08005529,-0.06661202,1.98000000,-48.74000000,-0.24000000
762,0,0.74700000,0.02200000,0.65900000,-0.02000000,0.06000000,-0.05000000,-0.00702540,-0.07999287,-0.06666404,1.98000000,-48.74000000,-0.24000000
763,0,0.75200000,0.02400000,0.66200000,0.16000000,0.07000000,0.21000000,-0.00685979,-0.07992042,-0.06644667,1.98000000,-48.73000000,-0.24000000
764,0,0.75000000,0.02500000,0.66000000,-0.12000000,-0.09000000,0.08000000,-0.00698199,-0.08001207,-0.06636520,1.98000000,-48.73000000,-0.24000000
765,0,0.75200000,0.02300000,0.66300000,-0.19000000,0.01000000,-0.04000000,-0.00717340,-0.08000200,-0.06640550,1.98000000,-48.73000000,-0.24000000
766,0,0.75400000,0.02300000,0.65700000,0.09000000,-0.16000000,-0.09000000,-0.00217099,-0.08889518,-0.07140791,1.97000000,-48.73000000,-0.24000000
767,0,0.75400000,0.02600000,0.65800000,-0.27000000,-0.06000000,-0.10000000,-0.00245123,-0.08895745,-0.07151170,1.97000000,-48.73000000,-0.24000000
768,0,0.74900000,0.02500000,0.66000000,-0.25000000,-0.11000000,-0.05000000,-0.00270172,-0.08906767,-0.07156180,1.97000000,-48.74000000,-0.24000000
769,0,0.74600000,0.01900000,0.65800000,-0.05000000,-0.17000000,-0.10000000,-0.00275162,-0.08923735,-0.07166161,1.97000000,-48.74000000,-0.24000000
770,0,0.75500000,0.02800000,0.65900000,0.13000000,0.17000000,0.10000000,-0.00261905,-0.08906398,-0.07155963,1.98000000,-48.73000000,-0.24000000
771,0,0.74900000,0.02100000,0.65900000,-0.02000000,0.09000000,-0.11000000,-0.00263944,-0.08897222,-0.07167179,1.97000000,-48.73000000,-0.24000000
772,0,0.74900000,0.02500000,0.66000000,0.26000000,-0.06000000,0.13000000,0.01199380,-0.09234912,-0.06435517,1.97000000,-48.73000000,-0.24000000
773,0,0.75300000,0.02300000,0.65700000,-0.14000000,-0.11000000,0.18000000,0.01184535,-0.09246576,-0.06416431,1.97000000,-48.73000000,-0.24000000
774,0,0.75500000,0.02100000,0.65300000,0.04000000,0.18000000,-0.11000000,0.01188588,-0.09228335,-0.06427578,1.98000000,-48.73000000,-0.24000000
775,0,0.75200000,0.02300000,0.65800000,0.28000000,0.05000000,-0.07000000,0.01217070,-0.09223249,-0.06434698,1.98000000,-48.73000000,-0.24000000
776,0,0.75300000,0.02000000,0.66000000,-0.09000000,0.06000000,-0.03000000,0.01208003,-0.09217204,-0.06437720,1.98000000,-48.73000000,-0.24000000
777,0,0.75200000,0.02400000,0.65800000,0.18000000,0.12000000,-0.01000000,0.01226089,-0.09205147,-0.06438725,1.98000000,-48.73000000,-0.24000000
778,0,0.75400000,0.02100000,0.65700000,-0.04000000,0.14000000,-0.11000000,0.01004428,-0.08429333,-0.07048293,1.98000000,-48.73000000,-0.24000000
779,0,0.74800000,0.02300000,0.65600000,-0.08000000,0.12000000,0.13000000,0.00996045,-0.08416758,-0.07034670,1.98000000,-48.73000000,-0.24000000
780,0,0.75200000,0.02200000,0.65700000,-0.08000000,-0.17000000,-0.05000000,0.00987947,-0.08433965,-0.07039731,1.98000000,-48.74000000,-0.24000000
781,0,0.75100000,0.02200000,0.66100000,-0.08000000,-0.08000000,-0.21000000,0.00979821,-0.08442091,-0.07061062,1.98000000,-48.74000000,-0.24000000
782,0,0.74700000,0.02000000,0.66200000,0.15000000,0.19000000,-0.02000000,0.00994911,-0.08422977,-0.07063074,1.98000000,-48.74000000,-0.24000000
783,0,0.75100000,0.02200000,0.65800000,-0.19000000,-0.01000000,0.11000000,0.00975693,-0.08423989,-0.07051947,1.98000000,-48.74000000,-0.24000000
784,0,0.75500000,0.01900000,0.65900000,0.22000000,0.16000000,-0.02000000,0.02218075,-0.07520438,-0.07164891,1.98000000,-48.74000000,-0.24000000
785,0,0.75200000,0.02600000,0.65500000,0.04000000,0.17000000,0.03000000,0.02222266,-0.07502627,-0.07161748,1.98000000,-48.74000000,-0.25000000
786,0,0.75200000,0.02900000,0.65800000,-0.14000000,-0.09000000,-0.02000000,0.02207982,-0.07511809,-0.07163789,1.98000000,-48.74000000,-0.25000000
787,0,0.75200000,0.02300000,0.65800000,-0.01000000,-0.15000000,0.14000000,0.02206973,-0.07526946,-0.07149661,1.98000000,-48.74000000,-0.25000000
788,0,0.75100000,0.01900000,0.66300000,0.13000000,-0.18000000,0.15000000,0.02220073,-0.07545083,-0.07134547,1.98000000,-48.74000000,-0.25000000
789,0,0.75000000,0.02100000,0.65600000,-0.02000000,-0.07000000,0.14000000,0.02218044,-0.07552182,-0.07120349,1.98000000,-48.74000000,-0.25000000
790,0,0.75200000,0.02000000,0.66000000,-0.02000000,-0.07000000,0.04000000,0.02107130,-0.07940381,-0.06898521,1.98000000,-48.74000000,-0.24000000
791,0,0.75000000,0.02000000,0.66100000,-0.18000000,0.18000000,-0.05000000,0.02087194,-0.07920445,-0.06904059,1.98000000,-48.74000000,-0.24000000
792,0,0.75600000,0.02300000,0.65600000,0.17000000,-0.14000000,0.01000000,0.02105893,-0.07935844,-0.06902959,1.98000000,-48.74000000,-0.24000000
793,0,0.74900000,0.02400000,0.65900000,0.15000000,-0.12000000,0.07000000,0.02122346,-0.07949006,-0.06895281,1.98000000,-48.74000000,-0.25000000
794,0,0.75100000,0.02200000,0.65900000,-0.02000000,0.11000000,0.23000000,0.02120173,-0.07937056,-0.06870296,1.98000000,-48.74000000,-0.25000000
795,0,0.75400000,0.02100000,0.65900000,-0.18000000,0.10000000,0.15000000,0.02100434,-0.07926090,-0.06853847,1.98000000,-48.73000000,-0.25000000
796,0,0.75400000,0.02500000,0.66000000,0.11000000,-0.21000000,0.14000000,0.02706574,-0.09083267,-0.06082396,1.98000000,-48.73000000,-0.25000000
797,0,0.75600000,0.01800000,0.66000000,0.11000000,-0.26000000,-0.16000000,0.02718844,-0.09112268,-0.06100243,1.98000000,-48.73000000,-0.25000000
798,0,0.75500000,0.02500000,0.66100000,-0.10000000,-0.13000000,-0.07000000,0.02708391,-0.09125857,-0.06107560,1.98000000,-48.73000000,-0.25000000
799,0,0.75000000,0.02800000,0.66200000,-0.05000000,-0.06000000,-0.11000000,0.02703332,-0.09131927,-0.06118689,1.98000000,-48.74000000,-0.25000000
800,0,0.75300000,0.02400000,0.66000000,-0.02000000,0.20000000,-0.26000000,0.02701316,-0.09111769,-0.06144894,1.98000000,-48.74000000,-0.25000000
801,0,0.75200000,0.02200000,0.65800000,0.05000000,0.11000000,-0.33000000,0.02706353,-0.09100688,-0.06178139,1.98000000,-48.74000000,-0.25000000
802,0,0.75400000,0.02300000,0.65900000,-0.04000000,0.20000000,-0.10000000,0.02472321,-0.07930527,-0.06763219,1.98000000,-48.73000000,-0.25000000
803,0,0.74900000,0.02900000,0.66000000,0.05000000,0.02000000,0.14000000,0.02477671,-0.07928388,-0.06748241,1.98000000,-48.74000000,-0.25000000
804,0,0.75200000,0.02000000,0.66200000,-0.05000000,0.10000000,0.01000000,0.02472596,-0.07918237,-0.06747226,1.98000000,-48.74000000,-0.25000000
805,0,0.75300000,0.02500000,0.66100000,0.12000000,-0.18000000,-0.11000000,0.02485154,-0.07937074,-0.06758737,1.98000000,-48.74000000,-0.25000000
806,0,0.74800000,0.02400000,0.66300000,0.02000000,-0.17000000,0.17000000,0.02487227,-0.07954695,-0.06741117,1.98000000,-48.74000000,-0.25000000
807,0,0.75500000,0.02200000,0.65500000,-0.08000000,-0.03000000,-0.23000000,0.02479106,-0.07957740,-0.06764463,1.98000000,-48.74000000,-0.25000000
808,0,0.75200000,0.02400000,0.66100000,0.29000000,0.32000000,-0.08000000,0.02509331,-0.07924389,-0.06772801,1.98000000,-48.74000000,-0.25000000
809,0,0.74900000,0.02200000,0.66000000,-0.10000000,0.20000000,0.04000000,0.01945346,-0.06796419,-0.06547207,1.98000000,-48.73000000,-0.25000000
810,0,0.75500000,0.02300000,0.66700000,0.12000000,0.06000000,0.08000000,0.01959100,-0.06789542,-0.06538037,1.98000000,-48.73000000,-0.25000000
811,0,0.74900000,0.02300000,0.66400000,0.26000000,-0.32000000,-0.05000000,0.01986254,-0.06822962,-0.06543259,1.99000000,-48.74000000,-0.25000000
812,0,0.75300000,0.02100000,0.66000000,0.05000000,0.02000000,0.12000000,0.01991412,-0.06820899,-0.06530881,1.99000000,-48.74000000,-0.25000000
813,0,0.74900000,0.02100000,0.65700000,0.25000000,0.06000000,0.07000000,0.02017300,-0.06814686,-0.06523632,1.99000000,-48.74000000,-0.25000000
814,0,0.75100000,0.02400000,0.65900000,0.01000000,0.11000000,-0.08000000,0.02018357,-0.06803069,-0.06532081,1.99000000,-48.74000000,-0.25000000
815,0,0.75000000,0.02100000,0.65700000,0.05000000,0.31000000,0.19000000,0.02293524,-0.05097029,-0.05486443,1.99000000,-48.73000000,-0.25000000
816,0,0.75100000,0.02900000,0.66400000,0.06000000,0.01000000,-0.15000000,0.02300019,-0.05095946,-0.05502681,1.99000000,-48.73000000,-0.25000000
817,0,0.75100000,0.02500000,0.66000000,-0.07000000,-0.06000000,-0.06000000,0.02292178,-0.05102668,-0.05509402,1.99000000,-48.73000000,-0.25000000
818,0,0.75200000,0.02300000,0.65900000,-0.20000000,0.01000000,-0.33000000,0.02271510,-0.05101634,-0.05543505,1.99000000,-48.73000000,-0.25000000
819,0,0.75200000,0.01800000,0.65600000,0.22000000,-0.05000000,0.17000000,0.02293846,-0.05106711,-0.05526245,1.99000000,-48.73000000,-0.25000000
820,0,0.75100000,0.02300000,0.65800000,0.15000000,-0.09000000,-0.11000000,0.02309011,-0.05115810,-0.05537366,1.99000000,-48.73000000,-0.25000000
821,0,0.75300000,0.02300000,0.65900000,-0.04000000,-0.16000000,0.23000000,0.02083757,-0.06016828,-0.04242153,1.99000000,-48.73000000,-0.25000000
822,0,0.75300000,0.02400000,0.66000000,-0.02000000,0.01000000,0.04000000,0.02081614,-0.06015756,-0.04237868,1.99000000,-48.74000000,-0.25000000
823,0,0.75400000,0.02100000,0.66300000,0.18000000,0.14000000,-0.06000000,0.02102082,-0.05999837,-0.04244690,1.99000000,-48.74000000,-0.25000000
824,0,0.75900000,0.02300000,0.65900000,-0.07000000,0.20000000,0.01000000,0.02094823,-0.05979097,-0.04243653,1.99000000,-48.73000000,-0.25000000
825,0,0.75200000,0.01600000,0.65900000,0.04000000,0.05000000,-0.11000000,0.02098866,-0.05974043,-0.04254772,1.99000000,-48.74000000,-0.25000000
826,0,0.74600000,0.02300000,0.66000000,-0.07000000,0.05000000,-0.05000000,0.02091683,-0.05968912,-0.04259903,1.99000000,-48.73000000,-0.25000000
827,0,0.74900000,0.02400000,0.65300000,0.01000000,0.15000000,0.06000000,0.02146960,-0.05139746,-0.03928237,1.99000000,-48.73000000,-0.25000000
