Measurement Count,IMU_MODE,Accel_X,Accel_Y,Accel_Z,Gyro_X,Gyro_Y,Gyro_Z,X_DEL_ANG,Y_DEL_ANG,Z_DEL_ANG,ROLL,PITCH,HEADING
1,0,-0.11200000,0.07600000,-0.98900000,0.06000000,-0.09000000,-0.12000000,0.01820166,-0.02730249,-0.03640332,-4.41000000,11.98000000,0.00000000
2,0,-0.11500000,0.07500000,-0.99000000,-0.16000000,-0.16000000,0.03000000,0.01803513,-0.02746902,-0.03637210,-4.35000000,22.30000000,0.02000000
3,0,-0.11600000,0.07100000,-0.98800000,-0.04000000,0.07000000,-0.06000000,0.01799526,-0.02739924,-0.03643192,-4.19000000,45.19000000,0.10000000
4,0,-0.11300000,0.07200000,-0.99400000,-0.09000000,0.02000000,-0.18000000,0.01790588,-0.02737937,-0.03661068,-3.66000000,76.06000000,0.59000000
5,0,-0.10900000,0.07300000,-0.98800000,0.08000000,-0.21000000,-0.03000000,0.01798668,-0.02759148,-0.03664098,170.23000000,87.49000000,174.44000000
6,0,-0.11500000,0.07000000,-0.99100000,0.05000000,-0.07000000,-0.15000000,0.01803712,-0.02766210,-0.03679231,175.64000000,60.35000000,179.78000000
7,0,-0.11800000,0.07100000,-0.98400000,-0.15000000,-0.11000000,-0.28000000,0.01788258,-0.02777544,-0.03708079,175.71000000,50.65000000,179.84000000
8,0,-0.11300000,0.07100000,-0.99300000,-0.08000000,0.12000000,0.13000000,0.01779407,-0.02764267,-0.03693697,175.72000000,46.32000000,179.85000000
9,0,-0.11900000,0.07400000,-0.99200000,-0.15000000,0.01000000,0.10000000,0.01762350,-0.02763130,-0.03682325,175.75000000,43.14000000,179.88000000
10,0,-0.11800000,0.07500000,-0.98600000,0.05000000,-0.28000000,-0.06000000,0.01767583,-0.02792433,-0.03688605,175.74000000,40.09000000,179.87000000
11,0,-0.11300000,0.07500000,-0.99000000,-0.01000000,-0.02000000,0.05000000,0.01766577,-0.02794443,-0.03683579,175.73000000,37.05000000,179.86000000
12,0,-0.11300000,0.07200000,-0.98900000,-0.03000000,-0.08000000,0.08000000,0.01763469,-0.02802731,-0.03675291,175.73000000,34.16000000,179.86000000
13,0,-0.11100000,0.07200000,-0.99300000,-0.05000000,0.05000000,0.13000000,0.01758293,-0.02797555,-0.03661832,175.73000000,33.52000000,179.86000000
14,0,-0.11800000,0.07500000,-0.98800000,0.25000000,0.07000000,-0.15000000,0.01788420,-0.02789119,-0.03679908,175.74000000,31.01000000,179.86000000
15,0,-0.11900000,0.07500000,-0.99400000,-0.04000000,0.12000000,-0.26000000,0.01783823,-0.02775331,-0.03709783,175.73000000,29.78000000,179.86000000
16,0,-0.11600000,0.07700000,-0.99200000,0.07000000,-0.00000000,-0.12000000,0.01791249,-0.02775331,-0.03722513,175.74000000,27.50000000,179.86000000
17,0,-0.11600000,0.07300000,-0.99200000,-0.06000000,-0.20000000,-0.12000000,0.01781268,-0.02808602,-0.03742476,175.75000000,26.17000000,179.87000000
18,0,-0.11500000,0.07100000,-0.98900000,-0.16000000,-0.12000000,0.07000000,0.01763516,-0.02821915,-0.03734709,175.76000000,24.46000000,179.87000000
19,0,-0.11800000,0.06900000,-0.99200000,-0.07000000,0.19000000,0.13000000,0.01755613,-0.02800464,-0.03720032,175.77000000,23.40000000,179.88000000
20,0,-0.11700000,0.07600000,-0.99100000,0.01000000,-0.05000000,0.13000000,0.01756803,-0.02806412,-0.03704568,175.77000000,23.16000000,179.88000000
21,0,-0.12100000,0.07400000,-0.99100000,0.19000000,-0.09000000,-0.00000000,0.01776959,-0.02815959,-0.03704568,175.77000000,22.45000000,179.88000000
22,0,-0.11700000,0.07900000,-0.98800000,-0.00000000,-0.00000000,-0.18000000,0.01776959,-0.02815959,-0.03724246,175.76000000,21.64000000,179.87000000
23,0,-0.11200000,0.07400000,-0.98900000,0.01000000,-0.07000000,0.00000000,0.01778029,-0.02823448,-0.03724246,175.76000000,21.19000000,179.87000000
24,0,-0.11500000,0.06900000,-0.99100000,0.15000000,0.12000000,-0.00000000,0.01793490,-0.02811079,-0.03724246,175.76000000,20.49000000,179.87000000
25,0,-0.11600000,0.07300000,-0.98700000,0.16000000,-0.03000000,0.08000000,0.01810475,-0.02814264,-0.03715754,175.76000000,20.12000000,179.87000000
26,0,-0.11200000,0.06600000,-0.99100000,-0.09000000,0.03000000,-0.22000000,0.01800473,-0.02810929,-0.03740204,175.78000000,19.33000000,179.88000000
27,0,-0.11800000,0.07600000,-0.98800000,0.21000000,-0.11000000,-0.12000000,0.01824062,-0.02823286,-0.03753684,175.78000000,18.96000000,179.88000000
28,0,-0.11800000,0.07000000,-0.99100000,-0.09000000,0.16000000,0.03000000,0.01814111,-0.02805595,-0.03750367,175.78000000,18.40000000,179.88000000
29,0,-0.11400000,0.07000000,-0.99000000,0.18000000,0.10000000,-0.18000000,0.02117833,-0.02636861,-0.04054089,175.77000000,17.69000000,179.88000000
30,0,-0.11900000,0.07200000,-0.98900000,-0.16000000,0.06000000,-0.08000000,0.02098373,-0.02629563,-0.04063819,175.77000000,17.18000000,179.88000000
31,0,-0.11900000,0.07300000,-0.99000000,-0.15000000,-0.02000000,0.28000000,0.02081073,-0.02631870,-0.04031526,175.77000000,17.01000000,179.88000000
32,0,-0.11400000,0.07300000,-0.99000000,-0.11000000,0.20000000,0.05000000,0.02069475,-0.02610782,-0.04026254,175.77000000,16.35000000,179.88000000
33,0,-0.12200000,0.07200000,-0.98900000,0.05000000,-0.01000000,-0.15000000,0.02074707,-0.02611828,-0.04041952,175.77000000,16.16000000,179.88000000
34,0,-0.12000000,0.07500000,-0.99100000,-0.20000000,0.16000000,-0.07000000,0.02053886,-0.02595172,-0.04049239,175.78000000,16.00000000,179.88000000
35,0,-0.11600000,0.07600000,-0.99100000,-0.23000000,-0.09000000,-0.10000000,0.00776040,-0.03095199,-0.04604824,175.77000000,15.49000000,179.88000000
36,0,-0.11700000,0.06900000,-0.98800000,0.03000000,0.11000000,-0.18000000,0.00779162,-0.03083750,-0.04623559,175.78000000,15.21000000,179.88000000
37,0,-0.12000000,0.07000000,-0.99000000,0.01000000,-0.11000000,0.09000000,0.00780157,-0.03094695,-0.04614604,175.77000000,14.81000000,179.88000000
38,0,-0.11500000,0.07200000,-0.98900000,-0.00000000,-0.16000000,0.08000000,0.00780157,-0.03112378,-0.04605762,175.77000000,14.57000000,179.88000000
39,0,-0.11500000,0.07300000,-0.99100000,-0.17000000,-0.06000000,0.11000000,0.00762553,-0.03118591,-0.04594371,175.77000000,14.39000000,179.88000000
40,0,-0.11900000,0.07000000,-0.99200000,-0.00000000,0.12000000,0.11000000,0.00762553,-0.03106436,-0.04583229,175.77000000,14.22000000,179.88000000
41,0,-0.11300000,0.07000000,-0.99100000,-0.19000000,0.14000000,-0.20000000,-0.00290006,-0.02330866,-0.05691186,175.78000000,14.00000000,179.88000000
42,0,-0.11700000,0.07500000,-0.98700000,-0.18000000,-0.04000000,0.05000000,-0.00308762,-0.02335034,-0.05685976,175.78000000,13.82000000,179.88000000
43,0,-0.11500000,0.07100000,-0.98800000,0.15000000,0.12000000,0.02000000,-0.00293479,-0.02322808,-0.05683939,175.78000000,13.70000000,179.88000000
44,0,-0.11600000,0.06600000,-0.99200000,0.06000000,0.21000000,-0.02000000,-0.00286264,-0.02297557,-0.05686343,175.79000000,13.43000000,179.88000000
45,0,-0.11300000,0.07100000,-0.99000000,-0.06000000,0.05000000,-0.12000000,-0.00292554,-0.02292316,-0.05698922,175.79000000,13.17000000,179.88000000
46,0,-0.11600000,0.07800000,-0.98800000,-0.03000000,-0.04000000,0.01000000,-0.00295569,-0.02296337,-0.05697916,175.79000000,13.07000000,179.88000000
47,0,-0.12000000,0.07000000,-0.98700000,-0.06000000,0.13000000,-0.27000000,-0.00628092,-0.01575870,-0.07194270,175.79000000,12.93000000,179.88000000
48,0,-0.11600000,0.07500000,-0.99200000,-0.05000000,-0.00000000,-0.01000000,-0.00633305,-0.01575870,-0.07195312,175.79000000,12.82000000,179.88000000
49,0,-0.11900000,0.07200000,-0.98800000,0.01000000,-0.01000000,0.10000000,-0.00632309,-0.01576866,-0.07185350,175.79000000,12.75000000,179.88000000
50,0,-0.11100000,0.06800000,-0.99200000,0.16000000,-0.08000000,0.22000000,-0.00616388,-0.01584827,-0.07163460,175.80000000,12.60000000,179.88000000
51,0,-0.11600000,0.07600000,-0.98900000,-0.24000000,-0.02000000,0.21000000,-0.00640664,-0.01586850,-0.07142219,175.80000000,12.55000000,179.88000000
52,0,-0.11300000,0.07300000,-0.99100000,-0.14000000,-0.21000000,-0.09000000,-0.00654771,-0.01608010,-0.07151288,175.79000000,12.40000000,179.88000000
53,0,-0.12100000,0.07100000,-0.99100000,0.07000000,-0.17000000,-0.18000000,-0.00260389,-0.02565796,-0.08165414,175.79000000,12.32000000,179.88000000
54,0,-0.11400000,0.07200000,-0.99600000,0.05000000,0.20000000,0.10000000,-0.00255169,-0.02544918,-0.08154975,175.79000000,12.25000000,179.88000000
55,0,-0.12000000,0.07100000,-0.98700000,-0.12000000,-0.05000000,0.14000000,-0.00267121,-0.02549898,-0.08141031,175.79000000,12.19000000,179.88000000
56,0,-0.11500000,0.07300000,-0.99200000,-0.15000000,0.10000000,-0.06000000,-0.00282268,-0.02539800,-0.08147090,175.79000000,12.10000000,179.88000000
57,0,-0.11300000,0.06800000,-0.98900000,0.05000000,0.04000000,0.20000000,-0.00277255,-0.02535789,-0.08127037,175.79000000,12.02000000,179.88000000
58,0,-0.11500000,0.07800000,-0.99000000,-0.15000000,0.13000000,-0.14000000,-0.00292198,-0.02522838,-0.08140984,175.79000000,11.91000000,179.88000000
59,0,-0.12100000,0.07200000,-0.99100000,0.17000000,0.16000000,-0.06000000,0.00651580,-0.01634577,-0.08474082,175.79000000,11.77000000,179.88000000
60,0,-0.11300000,0.07200000,-0.99100000,-0.03000000,-0.30000000,-0.18000000,0.00648446,-0.01665915,-0.08492885,175.80000000,11.60000000,179.88000000
61,0,-0.11500000,0.07600000,-0.99600000,0.22000000,0.11000000,-0.19000000,0.00670384,-0.01654946,-0.08511831,175.80000000,11.52000000,179.88000000
62,0,-0.11500000,0.07300000,-0.99100000,0.08000000,0.09000000,0.05000000,0.00678460,-0.01645860,-0.08506783,175.80000000,11.40000000,179.88000000
63,0,-0.12600000,0.07000000,-0.99100000,-0.09000000,0.41000000,0.21000000,0.00669368,-0.01604439,-0.08485567,175.80000000,11.35000000,179.88000000
64,0,-0.11400000,0.06800000,-0.99200000,-0.15000000,0.01000000,-0.03000000,0.00653895,-0.01603407,-0.08488662,175.80000000,11.31000000,179.88000000
65,0,-0.12000000,0.07200000,-0.99500000,0.11000000,0.06000000,-0.08000000,0.01266065,-0.01269497,-0.08933876,175.81000000,11.22000000,179.88000000
66,0,-0.11700000,0.06800000,-0.98900000,-0.07000000,0.13000000,-0.22000000,0.01258764,-0.01255938,-0.08956821,175.81000000,11.17000000,179.88000000
67,0,-0.11700000,0.07400000,-0.99100000,-0.00000000,0.05000000,0.10000000,0.01258764,-0.01250952,-0.08946849,175.81000000,11.04000000,179.88000000
68,0,-0.11500000,0.07100000,-0.99100000,-0.11000000,0.14000000,0.10000000,0.01246841,-0.01235777,-0.08936009,175.81000000,11.03000000,179.88000000
69,0,-0.11200000,0.07300000,-0.99000000,0.05000000,0.30000000,-0.25000000,0.01251890,-0.01205483,-0.08961255,175.81000000,10.99000000,179.88000000
70,0,-0.12000000,0.06800000,-0.99400000,-0.09000000,-0.08000000,0.13000000,0.01242827,-0.01213539,-0.08948164,175.81000000,10.95000000,179.88000000
71,0,-0.11700000,0.06700000,-0.99400000,0.15000000,-0.06000000,-0.01000000,0.02087160,-0.01551271,-0.09004453,175.81000000,10.88000000,179.89000000
72,0,-0.11400000,0.07300000,-0.99300000,-0.15000000,0.09000000,0.02000000,0.02070181,-0.01541085,-0.09002189,175.81000000,10.82000000,179.89000000
73,0,-0.11200000,0.07400000,-0.99100000,0.14000000,-0.08000000,-0.18000000,0.02085287,-0.01549716,-0.09021610,175.81000000,10.72000000,179.89000000
74,0,-0.11400000,0.07400000,-0.98800000,0.07000000,0.17000000,-0.12000000,0.02092445,-0.01532331,-0.09033883,175.81000000,10.68000000,179.89000000
75,0,-0.11600000,0.07300000,-0.98800000,-0.18000000,-0.17000000,0.01000000,0.02074509,-0.01549270,-0.09032886,175.81000000,10.63000000,179.89000000
76,0,-0.11300000,0.07300000,-0.99400000,-0.07000000,0.24000000,-0.14000000,0.02067539,-0.01525373,-0.09046826,175.81000000,10.55000000,179.89000000
77,0,-0.11400000,0.07700000,-0.98900000,-0.17000000,-0.10000000,0.05000000,0.01127802,-0.02078159,-0.08770433,175.81000000,10.49000000,179.89000000
78,0,-0.10900000,0.07500000,-0.99400000,0.09000000,0.22000000,-0.12000000,0.01137242,-0.02055083,-0.08783020,175.81000000,10.42000000,179.89000000
79,0,-0.11700000,0.07500000,-0.99000000,-0.06000000,0.10000000,-0.02000000,0.01131169,-0.02044961,-0.08785045,175.81000000,10.38000000,179.89000000
80,0,-0.11600000,0.06900000,-0.99000000,0.23000000,-0.16000000,0.18000000,0.01154340,-0.02061080,-0.08766911,175.81000000,10.36000000,179.89000000
81,0,-0.11200000,0.07700000,-0.99100000,-0.26000000,0.17000000,0.01000000,0.01128451,-0.02044152,-0.08765915,175.81000000,10.28000000,179.89000000
82,0,-0.12000000,0.07600000,-0.99800000,0.19000000,0.06000000,-0.07000000,0.01147420,-0.02038162,-0.08772904,175.81000000,10.27000000,179.89000000
83,0,-0.11800000,0.07000000,-0.99100000,-0.41000000,-0.15000000,0.15000000,-0.01169904,-0.02885964,-0.07925102,175.81000000,10.21000000,179.89000000
84,0,-0.11300000,0.07500000,-0.98900000,-0.01000000,0.10000000,-0.02000000,-0.01170971,-0.02875296,-0.07927236,175.81000000,10.19000000,179.89000000
85,0,-0.11800000,0.07800000,-0.98600000,0.06000000,-0.04000000,0.33000000,-0.01164918,-0.02879331,-0.07893944,175.81000000,10.15000000,179.89000000
86,0,-0.11600000,0.07100000,-0.99100000,-0.03000000,0.17000000,-0.04000000,-0.01167899,-0.02862440,-0.07897918,175.81000000,10.03000000,179.89000000
87,0,-0.11500000,0.07100000,-0.99200000,0.03000000,-0.04000000,0.20000000,-0.01164921,-0.02866410,-0.07878070,175.81000000,10.01000000,179.89000000
88,0,-0.11400000,0.06900000,-0.99200000,0.22000000,-0.15000000,0.05000000,-0.01142831,-0.02881471,-0.07873050,175.80000000,9.95000000,179.89000000
89,0,-0.11400000,0.07500000,-0.99000000,0.09000000,0.04000000,-0.14000000,-0.00642897,-0.02659278,-0.08650726,175.80000000,9.87000000,179.89000000
90,0,-0.11000000,0.06900000,-0.98900000,0.08000000,0.05000000,-0.17000000,-0.00634353,-0.02653938,-0.08668882,175.80000000,9.83000000,179.89000000
91,0,-0.11800000,0.07200000,-0.99200000,-0.20000000,0.05000000,-0.12000000,-0.00654654,-0.02648862,-0.08681062,175.80000000,9.78000000,179.89000000
92,0,-0.11900000,0.07300000,-0.99100000,0.12000000,0.08000000,0.07000000,-0.00642614,-0.02640836,-0.08674039,175.80000000,9.72000000,179.89000000
93,0,-0.11500000,0.06900000,-0.99100000,-0.06000000,0.14000000,-0.18000000,-0.00654210,-0.02613777,-0.08708828,175.80000000,9.69000000,179.89000000
94,0,-0.11400000,0.07000000,-0.99500000,-0.23000000,-0.16000000,0.03000000,-0.00678653,-0.02630781,-0.08705639,175.80000000,9.66000000,179.89000000
95,0,-0.11500000,0.07500000,-0.99000000,0.05000000,-0.11000000,-0.16000000,-0.00406580,-0.03229342,-0.09576273,175.80000000,9.61000000,179.89000000
96,0,-0.11600000,0.07500000,-0.99300000,0.09000000,0.28000000,-0.03000000,-0.00396796,-0.03198904,-0.09579534,175.80000000,9.56000000,179.89000000
97,0,-0.11400000,0.07100000,-0.99100000,-0.02000000,0.18000000,-0.11000000,-0.00398815,-0.03180737,-0.09590637,175.80000000,9.53000000,179.89000000
98,0,-0.11600000,0.07300000,-0.99000000,-0.19000000,0.08000000,0.05000000,-0.00417684,-0.03172792,-0.09585671,175.80000000,9.49000000,179.89000000
99,0,-0.11400000,0.07600000,-0.99200000,0.36000000,0.07000000,0.00000000,-0.00381434,-0.03165743,-0.09585671,175.80000000,9.44000000,179.89000000
100,0,-0.11800000,0.07600000,-0.98900000,-0.07000000,0.09000000,0.09000000,-0.00388530,-0.03156620,-0.09576549,175.80000000,9.40000000,179.89000000
101,0,-0.11500000,0.07300000,-0.99200000,0.04000000,-0.16000000,0.29000000,-0.00165553,-0.04048525,-0.07959972,175.80000000,9.36000000,179.89000000
102,0,-0.11800000,0.07200000,-0.99700000,0.34000000,-0.25000000,0.17000000,-0.00129599,-0.04074962,-0.07941995,175.80000000,9.34000000,179.89000000
103,0,-0.11500000,0.07400000,-0.99200000,0.15000000,0.01000000,-0.05000000,-0.00114362,-0.04073946,-0.07947073,175.80000000,9.31000000,179.89000000
104,0,-0.11800000,0.07400000,-0.98900000,0.01000000,-0.20000000,-0.00000000,-0.00113356,-0.04094066,-0.07947073,175.80000000,9.27000000,179.89000000
105,0,-0.11500000,0.06900000,-0.98800000,0.28000000,0.03000000,-0.06000000,-0.00085542,-0.04091086,-0.07953033,175.80000000,9.24000000,179.89000000
106,0,-0.11700000,0.07100000,-0.99400000,0.08000000,0.03000000,-0.15000000,-0.00077475,-0.04088061,-0.07968159,175.81000000,9.21000000,179.89000000
107,0,-0.11600000,0.07500000,-0.99100000,-0.03000000,-0.10000000,-0.15000000,-0.00246157,-0.04650334,-0.08811569,175.81000000,9.17000000,179.89000000
108,0,-0.12100000,0.07300000,-0.99000000,-0.12000000,-0.03000000,-0.03000000,-0.00258890,-0.04653517,-0.08814752,175.81000000,9.15000000,179.89000000
109,0,-0.11500000,0.07500000,-0.98900000,0.05000000,-0.18000000,-0.11000000,-0.00253833,-0.04671724,-0.08825878,175.80000000,9.13000000,179.89000000
110,0,-0.11600000,0.07500000,-0.99100000,-0.03000000,0.01000000,-0.12000000,-0.00256945,-0.04670686,-0.08838328,175.80000000,9.10000000,179.89000000
111,0,-0.11500000,0.07500000,-0.98700000,0.07000000,-0.21000000,-0.11000000,-0.00249690,-0.04692453,-0.08849729,175.81000000,9.07000000,179.89000000
112,0,-0.11600000,0.07000000,-0.99200000,-0.06000000,0.19000000,-0.09000000,-0.00255848,-0.04672950,-0.08858968,175.81000000,9.06000000,179.89000000
113,0,-0.11700000,0.07100000,-0.99200000,-0.09000000,0.35000000,-0.11000000,-0.00781234,-0.02629784,-0.09501106,175.81000000,9.03000000,179.89000000
114,0,-0.11300000,0.07400000,-0.98900000,0.15000000,0.04000000,-0.17000000,-0.00765096,-0.02625480,-0.09519395,175.81000000,9.01000000,179.89000000
115,0,-0.12100000,0.07300000,-0.99200000,-0.20000000,-0.09000000,-0.16000000,-0.00785331,-0.02634586,-0.09535582,175.80000000,8.98000000,179.89000000
116,0,-0.11300000,0.07000000,-0.99200000,0.02000000,0.02000000,0.27000000,-0.00783277,-0.02632532,-0.09507854,175.81000000,8.95000000,179.90000000
117,0,-0.11600000,0.07100000,-0.98800000,-0.03000000,0.13000000,-0.05000000,-0.00786300,-0.02619429,-0.09512894,175.81000000,8.93000000,179.90000000
118,0,-0.11500000,0.07400000,-0.99300000,0.11000000,0.10000000,-0.27000000,-0.00775245,-0.02609379,-0.09540030,175.81000000,8.90000000,179.90000000
119,0,-0.11600000,0.06800000,-0.99100000,0.05000000,0.21000000,0.22000000,-0.00770258,-0.02588433,-0.09518087,175.81000000,8.88000000,179.90000000
120,0,-0.11800000,0.07000000,-0.98600000,0.33000000,-0.21000000,0.04000000,0.01071435,-0.03760420,-0.09294851,175.81000000,8.87000000,179.90000000
121,0,-0.11000000,0.07600000,-0.98900000,0.22000000,-0.17000000,0.17000000,0.01097606,-0.03780642,-0.09274629,175.81000000,8.84000000,179.90000000
122,0,-0.11300000,0.07000000,-0.98800000,0.06000000,0.10000000,0.01000000,0.01104028,-0.03769939,-0.09273558,175.81000000,8.83000000,179.89000000
123,0,-0.11500000,0.07200000,-0.98900000,-0.19000000,0.03000000,-0.11000000,0.01084366,-0.03766834,-0.09284941,175.81000000,8.82000000,179.89000000
124,0,-0.11600000,0.07300000,-0.98900000,0.08000000,-0.14000000,0.20000000,0.01093291,-0.03782453,-0.09262628,175.81000000,8.81000000,179.89000000
125,0,-0.11800000,0.07200000,-0.99200000,0.11000000,0.04000000,0.15000000,0.01105679,-0.03777949,-0.09245736,175.81000000,8.81000000,179.89000000
126,0,-0.11600000,0.07100000,-0.98800000,-0.36000000,0.03000000,0.10000000,-0.00897570,-0.03611011,-0.08689278,175.81000000,8.79000000,179.89000000
127,0,-0.12100000,0.06700000,-0.99100000,0.33000000,0.13000000,-0.05000000,-0.00862901,-0.03597354,-0.08694531,175.81000000,8.76000000,179.90000000
128,0,-0.11600000,0.07300000,-0.98900000,0.11000000,-0.18000000,-0.07000000,-0.00851806,-0.03615509,-0.08701591,175.81000000,8.74000000,179.90000000
129,0,-0.11700000,0.07200000,-0.99700000,0.10000000,-0.07000000,-0.05000000,-0.00841801,-0.03622513,-0.08706593,175.81000000,8.73000000,179.90000000
130,0,-0.11500000,0.06900000,-0.99000000,-0.22000000,0.19000000,-0.13000000,-0.00865192,-0.03602312,-0.08720415,175.81000000,8.71000000,179.90000000
131,0,-0.11000000,0.07500000,-0.98700000,0.24000000,0.13000000,0.14000000,-0.00834822,-0.03585861,-0.08702700,175.81000000,8.70000000,179.90000000
132,0,-0.11000000,0.07500000,-0.98600000,-0.13000000,-0.08000000,0.04000000,-0.01552199,-0.04027324,-0.08481969,175.81000000,8.69000000,179.90000000
133,0,-0.11300000,0.06800000,-0.99700000,-0.04000000,0.10000000,0.12000000,-0.01556495,-0.04016584,-0.08469081,175.81000000,8.67000000,179.90000000
134,0,-0.11300000,0.07500000,-0.98900000,0.01000000,0.04000000,-0.17000000,-0.01555450,-0.04012406,-0.08486840,175.81000000,8.65000000,179.90000000
135,0,-0.11500000,0.07400000,-0.99500000,0.39000000,-0.07000000,0.31000000,-0.01514812,-0.04019700,-0.08454538,175.81000000,8.64000000,179.90000000
136,0,-0.11800000,0.07500000,-0.98800000,-0.05000000,0.11000000,-0.25000000,-0.01519870,-0.04008574,-0.08479825,175.81000000,8.62000000,179.90000000
137,0,-0.11800000,0.07100000,-0.99300000,0.11000000,0.30000000,-0.02000000,-0.01508741,-0.03978222,-0.08481848,175.81000000,8.60000000,179.90000000
138,0,-0.11600000,0.07300000,-0.98800000,-0.07000000,-0.16000000,0.11000000,-0.01898220,-0.04868460,-0.07869810,175.81000000,8.57000000,179.90000000
139,0,-0.11600000,0.07100000,-0.98900000,-0.02000000,0.09000000,0.10000000,-0.01900381,-0.04858732,-0.07859001,175.81000000,8.56000000,179.90000000
140,0,-0.11200000,0.06900000,-0.98900000,0.03000000,-0.02000000,0.36000000,-0.01897336,-0.04860762,-0.07822460,175.81000000,8.56000000,179.90000000
141,0,-0.12100000,0.06600000,-0.99000000,0.14000000,0.17000000,0.16000000,-0.01883166,-0.04843555,-0.07806265,175.82000000,8.55000000,179.90000000
142,0,-0.11600000,0.07800000,-0.99300000,-0.04000000,-0.06000000,-0.14000000,-0.01887195,-0.04849600,-0.07820368,175.81000000,8.53000000,179.90000000
143,0,-0.11500000,0.07500000,-0.99300000,0.26000000,-0.11000000,-0.04000000,-0.01859918,-0.04861140,-0.07824565,175.81000000,8.52000000,179.90000000
144,0,-0.11900000,0.07900000,-0.99200000,0.03000000,-0.05000000,0.12000000,-0.01691479,-0.05141871,-0.07150810,175.81000000,8.51000000,179.90000000
145,0,-0.11800000,0.07200000,-0.98600000,-0.04000000,0.05000000,0.18000000,-0.01695706,-0.05136588,-0.07131788,175.81000000,8.50000000,179.89000000
146,0,-0.11400000,0.07300000,-0.99200000,-0.21000000,-0.16000000,-0.09000000,-0.01716897,-0.05152733,-0.07140870,175.81000000,8.48000000,179.89000000
147,0,-0.11900000,0.07400000,-0.99000000,-0.12000000,0.05000000,-0.16000000,-0.01729112,-0.05147643,-0.07157157,175.81000000,8.45000000,179.89000000
148,0,-0.11900000,0.07200000,-0.99200000,0.04000000,-0.14000000,-0.13000000,-0.01725093,-0.05161707,-0.07170216,175.81000000,8.44000000,179.89000000
149,0,-0.11400000,0.07500000,-0.99000000,-0.08000000,-0.06000000,-0.11000000,-0.01733151,-0.05167750,-0.07181295,175.81000000,8.40000000,179.90000000
150,0,-0.11600000,0.07500000,-0.99100000,0.01000000,0.09000000,-0.05000000,-0.01677684,-0.04668552,-0.07458627,175.81000000,8.39000000,179.90000000
151,0,-0.11100000,0.07200000,-0.99300000,0.01000000,0.14000000,-0.14000000,-0.01676626,-0.04653730,-0.07473449,175.81000000,8.36000000,179.90000000
152,0,-0.11900000,0.07300000,-0.99200000,0.14000000,-0.07000000,-0.15000000,-0.01662498,-0.04660794,-0.07488585,175.81000000,8.34000000,179.90000000
153,0,-0.11500000,0.07700000,-0.98800000,-0.19000000,-0.15000000,-0.08000000,-0.01681789,-0.04676023,-0.07496708,175.81000000,8.34000000,179.90000000
154,0,-0.11500000,0.07600000,-0.98700000,0.32000000,-0.09000000,0.00000000,-0.01649727,-0.04685041,-0.07496708,175.81000000,8.32000000,179.90000000
155,0,-0.11800000,0.07600000,-0.98900000,0.04000000,0.01000000,-0.08000000,-0.01645687,-0.04684031,-0.07504788,175.81000000,8.31000000,179.90000000
156,0,-0.11800000,0.07100000,-0.99000000,0.09000000,-0.03000000,0.01000000,-0.01142343,-0.04851812,-0.07448861,175.81000000,8.30000000,179.90000000
157,0,-0.11800000,0.07400000,-0.99500000,0.08000000,-0.09000000,-0.23000000,-0.01133900,-0.04861310,-0.07473134,175.81000000,8.28000000,179.90000000
158,0,-0.11500000,0.07300000,-0.98900000,-0.18000000,0.06000000,-0.39000000,-0.01152458,-0.04855124,-0.07513344,175.81000000,8.27000000,179.90000000
159,0,-0.11700000,0.07400000,-0.98900000,0.05000000,-0.15000000,0.06000000,-0.01147440,-0.04870178,-0.07507322,175.81000000,8.26000000,179.90000000
160,0,-0.11700000,0.07600000,-0.99100000,0.08000000,0.01000000,-0.11000000,-0.01139425,-0.04869176,-0.07518343,175.81000000,8.25000000,179.90000000
161,0,-0.11700000,0.07400000,-0.98800000,0.00000000,0.13000000,0.05000000,-0.01139425,-0.04856126,-0.07513324,175.81000000,8.23000000,179.90000000
162,0,-0.11700000,0.07100000,-0.99300000,0.07000000,-0.09000000,0.29000000,-0.00747286,-0.05360305,-0.05888747,175.81000000,8.22000000,179.90000000
163,0,-0.11900000,0.07500000,-0.98800000,0.15000000,-0.09000000,0.00000000,-0.00731391,-0.05369842,-0.05888747,175.81000000,8.21000000,179.90000000
164,0,-0.11700000,0.07300000,-0.99000000,-0.11000000,0.00000000,0.09000000,-0.00742507,-0.05369842,-0.05879653,175.81000000,8.20000000,179.90000000
165,0,-0.11200000,0.07200000,-0.99000000,-0.14000000,0.25000000,0.08000000,-0.00756574,-0.05344722,-0.05871614,175.81000000,8.19000000,179.90000000
166,0,-0.11600000,0.07600000,-0.99000000,-0.06000000,-0.06000000,0.01000000,-0.00762580,-0.05350728,-0.05870613,175.81000000,8.18000000,179.89000000
167,0,-0.11500000,0.07400000,-0.99000000,-0.09000000,0.20000000,0.09000000,-0.00771662,-0.05330546,-0.05861532,175.81000000,8.16000000,179.90000000
168,0,-0.11300000,0.07000000,-0.99100000,0.09000000,0.07000000,-0.23000000,-0.00272358,-0.04942199,-0.07137530,175.81000000,8.15000000,179.90000000
169,0,-0.11700000,0.07400000,-0.99400000,0.01000000,0.10000000,0.19000000,-0.00271294,-0.04931562,-0.07117320,175.81000000,8.13000000,179.90000000
170,0,-0.12000000,0.06700000,-0.99000000,0.05000000,0.00000000,-0.08000000,-0.00266156,-0.04931562,-0.07125542,175.81000000,8.11000000,179.90000000
171,0,-0.11900000,0.07200000,-0.98700000,0.00000000,-0.01000000,0.08000000,-0.00266156,-0.04932570,-0.07117475,175.81000000,8.10000000,179.89000000
172,0,-0.11600000,0.07100000,-0.99100000,-0.14000000,0.28000000,0.08000000,-0.00280497,-0.04903888,-0.07109280,175.81000000,8.09000000,179.89000000
173,0,-0.11400000,0.07400000,-0.99100000,-0.20000000,-0.03000000,0.05000000,-0.00300955,-0.04906957,-0.07104165,175.81000000,8.07000000,179.90000000
174,0,-0.11600000,0.07500000,-0.98800000,-0.19000000,-0.15000000,-0.07000000,-0.01374008,-0.05754104,-0.07499500,175.81000000,8.06000000,179.90000000
175,0,-0.11300000,0.07200000,-0.99000000,-0.02000000,0.06000000,0.10000000,-0.01376127,-0.05747745,-0.07488902,175.81000000,8.05000000,179.90000000
176,0,-0.11600000,0.07200000,-0.99200000,-0.10000000,-0.22000000,0.22000000,-0.01386247,-0.05770008,-0.07466639,175.81000000,8.04000000,179.90000000
177,0,-0.12300000,0.06400000,-0.99100000,-0.04000000,-0.01000000,-0.22000000,-0.01390264,-0.05771012,-0.07488734,175.81000000,8.03000000,179.90000000
178,0,-0.11500000,0.07100000,-0.99300000,-0.04000000,0.15000000,-0.10000000,-0.01394258,-0.05756036,-0.07498717,175.81000000,8.02000000,179.90000000
179,0,-0.12200000,0.07300000,-0.99100000,-0.17000000,0.02000000,0.10000000,-0.01411513,-0.05754006,-0.07488567,175.81000000,8.01000000,179.90000000
180,0,-0.11200000,0.06700000,-0.98900000,0.04000000,-0.12000000,-0.14000000,-0.01189819,-0.06419090,-0.08264497,175.81000000,8.00000000,179.90000000
181,0,-0.11600000,0.07400000,-0.99100000,-0.06000000,0.00000000,-0.10000000,-0.01196240,-0.06419090,-0.08275199,175.81000000,7.99000000,179.90000000
182,0,-0.11700000,0.07200000,-0.99100000,-0.07000000,-0.08000000,-0.01000000,-0.01203315,-0.06427176,-0.08276209,175.81000000,7.98000000,179.90000000
183,0,-0.11700000,0.07300000,-0.99300000,-0.07000000,0.04000000,0.02000000,-0.01210325,-0.06423170,-0.08274206,175.81000000,7.97000000,179.90000000
184,0,-0.11000000,0.07800000,-0.98700000,-0.05000000,-0.08000000,0.15000000,-0.01215306,-0.06431140,-0.08259263,175.81000000,7.97000000,179.90000000
185,0,-0.11500000,0.07200000,-0.99300000,-0.14000000,0.05000000,0.32000000,-0.01229561,-0.06426049,-0.08226682,175.81000000,7.95000000,179.90000000
186,0,-0.11600000,0.07800000,-0.98500000,0.14000000,-0.04000000,0.01000000,-0.00048073,-0.06763617,-0.08142290,175.81000000,7.95000000,179.90000000
187,0,-0.11300000,0.06900000,-0.99800000,0.03000000,-0.01000000,0.05000000,-0.00036784,-0.06767380,-0.08123474,175.81000000,7.94000000,179.90000000
188,0,-0.11700000,0.07000000,-0.99400000,-0.02000000,0.29000000,0.02000000,-0.00039030,-0.06734811,-0.08121228,175.81000000,7.94000000,179.90000000
189,0,-0.11300000,0.07500000,-0.99200000,-0.02000000,-0.10000000,0.18000000,-0.00050614,-0.06792731,-0.08016972,175.81000000,7.93000000,179.90000000
190,0,-0.11300000,0.07200000,-0.98900000,0.15000000,0.12000000,0.19000000,0.00027526,-0.06730220,-0.07917995,175.81000000,7.93000000,179.90000000
191,0,-0.11400000,0.07100000,-0.99300000,-0.17000000,-0.04000000,-0.23000000,-0.00015877,-0.06740432,-0.07976716,175.81000000,7.92000000,179.90000000
192,0,-0.11200000,0.06900000,-0.98600000,0.08000000,-0.05000000,0.03000000,0.00099702,-0.06812668,-0.07933374,175.81000000,7.91000000,179.90000000
193,0,-0.11400000,0.07800000,-0.99000000,0.06000000,-0.05000000,0.18000000,0.00127220,-0.06835600,-0.07850820,175.81000000,7.90000000,179.90000000
194,0,-0.11400000,0.07200000,-0.98900000,-0.09000000,-0.18000000,0.19000000,0.00082349,-0.06925342,-0.07756092,175.81000000,7.90000000,179.90000000
195,0,-0.11100000,0.07400000,-0.99300000,0.10000000,-0.11000000,0.05000000,0.00108180,-0.06953757,-0.07743177,175.81000000,7.89000000,179.89000000
196,0,-0.10900000,0.07200000,-0.99200000,-0.08000000,0.27000000,0.10000000,0.00065552,-0.06809887,-0.07689891,175.81000000,7.89000000,179.89000000
197,0,-0.11500000,0.06900000,-0.99300000,-0.01000000,0.05000000,-0.03000000,0.00061498,-0.06789615,-0.07702055,175.81000000,7.88000000,179.89000000
198,0,-0.11200000,0.07600000,-0.98800000,0.03000000,-0.15000000,0.07000000,0.00178253,-0.07373394,-0.07429625,175.81000000,7.88000000,179.89000000
199,0,-0.11800000,0.07200000,-0.99000000,0.06000000,-0.12000000,0.13000000,0.00191061,-0.07399010,-0.07401874,175.81000000,7.87000000,179.89000000
200,0,-0.11200000,0.06800000,-0.99000000,0.04000000,0.00000000,-0.10000000,0.00197010,-0.07399010,-0.07416745,175.81000000,7.86000000,179.89000000
201,0,-0.11300000,0.07000000,-0.98800000,-0.03000000,-0.06000000,0.04000000,0.00192825,-0.07407379,-0.07411166,175.81000000,7.85000000,179.89000000
202,0,-0.11500000,0.07200000,-0.99400000,-0.16000000,0.01000000,-0.20000000,0.00042609,-0.07397990,-0.07598937,175.81000000,7.84000000,179.89000000
203,0,-0.11400000,0.07200000,-0.99100000,0.13000000,0.21000000,0.03000000,0.00090022,-0.07321399,-0.07587995,175.81000000,7.84000000,179.89000000
204,0,-0.11200000,0.07400000,-0.98800000,-0.11000000,-0.18000000,0.25000000,-0.00376506,-0.08084809,-0.06527703,175.81000000,7.83000000,179.89000000
205,0,-0.11700000,0.07400000,-0.99000000,0.13000000,0.01000000,-0.22000000,-0.00357598,-0.08083355,-0.06559701,175.81000000,7.82000000,179.89000000
206,0,-0.11400000,0.07400000,-0.99100000,-0.10000000,-0.15000000,-0.17000000,-0.00370181,-0.08102228,-0.06581091,175.81000000,7.81000000,179.89000000
207,0,-0.11200000,0.07600000,-0.99000000,0.20000000,0.14000000,-0.22000000,-0.00342966,-0.08083178,-0.06611028,175.81000000,7.80000000,179.89000000
208,0,-0.11100000,0.07200000,-0.99200000,-0.14000000,0.09000000,-0.16000000,-0.00364640,-0.08069244,-0.06635799,175.81000000,7.79000000,179.89000000
209,0,-0.11500000,0.07200000,-0.98900000,-0.34000000,-0.08000000,-0.03000000,-0.00479509,-0.08096272,-0.06645934,175.81000000,7.78000000,179.89000000
210,0,-0.11900000,0.06700000,-0.98700000,0.21000000,-0.16000000,0.04000000,0.00625437,-0.08938136,-0.06435468,175.81000000,7.78000000,179.89000000
211,0,-0.11500000,0.07700000,-0.99000000,-0.17000000,-0.01000000,0.15000000,0.00605571,-0.08939304,-0.06417939,175.81000000,7.77000000,179.89000000
212,0,-0.11700000,0.07100000,-0.98800000,0.06000000,0.12000000,-0.11000000,0.00612145,-0.08926156,-0.06429991,175.81000000,7.76000000,179.89000000
213,0,-0.11600000,0.07600000,-0.98800000,0.02000000,-0.12000000,-0.04000000,0.00614551,-0.08940594,-0.06434804,175.81000000,7.75000000,179.89000000
214,0,-0.11800000,0.06900000,-0.98700000,0.03000000,0.03000000,-0.07000000,0.00617925,-0.08937220,-0.06442677,175.81000000,7.75000000,179.89000000
215,0,-0.11600000,0.07900000,-0.99100000,-0.14000000,-0.02000000,-0.06000000,0.00601996,-0.08939496,-0.06449504,175.81000000,7.74000000,179.89000000
216,0,-0.11400000,0.07400000,-0.99400000,0.17000000,-0.18000000,-0.13000000,0.01534502,-0.09926855,-0.07162597,175.81000000,7.74000000,179.89000000
217,0,-0.11500000,0.07000000,-0.99300000,-0.01000000,0.17000000,-0.11000000,0.01533363,-0.09907504,-0.07175118,175.81000000,7.73000000,179.89000000
218,0,-0.11300000,0.07100000,-0.99300000,-0.03000000,-0.03000000,0.05000000,0.01530230,-0.09910638,-0.07169895,175.81000000,7.72000000,179.89000000
219,0,-0.11300000,0.07600000,-0.99200000,0.05000000,-0.11000000,-0.19000000,0.01535338,-0.09921877,-0.07189308,175.81000000,7.71000000,179.90000000
220,0,-0.11700000,0.07300000,-0.99000000,-0.09000000,0.07000000,0.04000000,0.01526254,-0.09914812,-0.07185271,175.81000000,7.70000000,179.90000000
221,0,-0.11300000,0.07300000,-0.98900000,-0.06000000,0.15000000,-0.02000000,0.01520200,-0.09899675,-0.07187289,175.81000000,7.69000000,179.90000000
222,0,-0.11700000,0.07000000,-0.98600000,-0.06000000,0.06000000,-0.30000000,0.01187702,-0.09567178,-0.08849775,175.81000000,7.69000000,179.90000000
223,0,-0.11200000,0.07100000,-0.99000000,-0.06000000,-0.06000000,0.19000000,0.01178755,-0.09576125,-0.08821443,175.81000000,7.69000000,179.90000000
224,0,-0.11400000,0.07200000,-0.99500000,-0.15000000,0.01000000,0.41000000,0.01160790,-0.09574927,-0.08772338,175.81000000,7.68000000,179.89000000
225,0,-0.12100000,0.07200000,-0.99200000,-0.17000000,-0.01000000,0.05000000,0.01142448,-0.09576006,-0.08766943,175.81000000,7.68000000,179.90000000
226,0,-0.12100000,0.07100000,-0.99100000,-0.03000000,-0.06000000,0.27000000,0.01139329,-0.09582245,-0.08738868,175.81000000,7.67000000,179.89000000
227,0,-0.11400000,0.07100000,-0.99500000,0.10000000,-0.04000000,-0.10000000,0.01149846,-0.09586452,-0.08749385,175.81000000,7.67000000,179.89000000
228,0,-0.11800000,0.07100000,-0.98600000,-0.04000000,-0.01000000,0.18000000,0.00927323,-0.09642083,-0.07748031,175.81000000,7.67000000,179.89000000
229,0,-0.11600000,0.07300000,-0.99100000,0.02000000,-0.03000000,-0.13000000,0.00929994,-0.09646089,-0.07765389,175.81000000,7.66000000,179.89000000
230,0,-0.11400000,0.07200000,-0.98600000,0.21000000,-0.00000000,0.04000000,0.00958174,-0.09646089,-0.07760022,175.81000000,7.65000000,179.89000000
231,0,-0.11500000,0.07100000,-0.99300000,0.05000000,-0.02000000,-0.09000000,0.00964619,-0.09648667,-0.07771623,175.81000000,7.65000000,179.89000000
232,0,-0.11200000,0.07400000,-0.99100000,-0.12000000,-0.18000000,0.02000000,0.00950481,-0.09669873,-0.07769266,175.81000000,7.64000000,179.89000000
233,0,-0.11400000,0.07000000,-0.99000000,-0.14000000,0.36000000,-0.04000000,0.00934475,-0.09628714,-0.07773840,175.81000000,7.63000000,179.89000000
234,0,-0.11800000,0.07200000,-0.99200000,-0.03000000,-0.05000000,-0.05000000,0.00762757,-0.09914910,-0.08060035,175.81000000,7.62000000,179.89000000
235,0,-0.11600000,0.06800000,-0.98800000,0.07000000,0.07000000,-0.17000000,0.00771028,-0.09906639,-0.08080120,175.81000000,7.62000000,179.89000000
236,0,-0.11600000,0.07000000,-0.99000000,-0.04000000,0.06000000,-0.19000000,0.00766718,-0.09900174,-0.08100593,175.81000000,7.61000000,179.89000000
237,0,-0.11900000,0.07300000,-0.98500000,-0.07000000,0.16000000,0.21000000,0.00758276,-0.09880878,-0.08075267,175.81000000,7.60000000,179.89000000
238,0,-0.11600000,0.07100000,-0.99100000,0.15000000,-0.07000000,-0.14000000,0.00774943,-0.09888656,-0.08090823,175.81000000,7.60000000,179.89000000
239,0,-0.11800000,0.06800000,-0.99100000,0.19000000,0.09000000,0.04000000,0.00795270,-0.09879027,-0.08086543,175.81000000,7.59000000,179.89000000
240,0,-0.11500000,0.07500000,-0.98900000,-0.16000000,0.16000000,-0.08000000,0.00775905,-0.09859662,-0.08096225,175.81000000,7.58000000,179.89000000
241,0,-0.11500000,0.07100000,-0.99100000,-0.08000000,-0.33000000,-0.10000000,0.00338815,-0.11662661,-0.08642589,175.81000000,7.57000000,179.90000000
242,0,-0.12000000,0.08300000,-0.98900000,0.23000000,0.24000000,0.01000000,0.00363943,-0.11636440,-0.08641496,175.81000000,7.56000000,179.89000000
243,0,-0.12000000,0.07200000,-0.99500000,-0.11000000,0.19000000,-0.05000000,0.00349360,-0.11611252,-0.08648125,175.81000000,7.56000000,179.89000000
244,0,-0.12100000,0.07300000,-0.99000000,-0.02000000,-0.17000000,0.00000000,0.00346896,-0.11632200,-0.08648125,175.81000000,7.55000000,179.89000000
245,0,-0.11900000,0.07400000,-0.99200000,0.27000000,0.13000000,0.10000000,0.00380141,-0.11616193,-0.08635812,175.81000000,7.55000000,179.90000000
246,0,-0.11600000,0.07500000,-0.99000000,-0.11000000,0.07000000,-0.06000000,0.00365490,-0.11606870,-0.08643803,175.81000000,7.53000000,179.90000000
247,0,-0.11600000,0.07500000,-0.99300000,-0.01000000,0.03000000,0.00000000,0.00310017,-0.11440451,-0.08643803,175.81000000,7.52000000,179.90000000
248,0,-0.11700000,0.07100000,-0.99400000,-0.28000000,0.00000000,0.11000000,0.00271275,-0.11440451,-0.08628583,175.81000000,7.52000000,179.90000000
249,0,-0.11400000,0.07000000,-0.99000000,0.03000000,-0.01000000,-0.04000000,0.00275005,-0.11441694,-0.08633557,175.81000000,7.52000000,179.90000000
250,0,-0.11100000,0.06900000,-0.99100000,-0.05000000,-0.20000000,0.07000000,0.00268761,-0.11466668,-0.08624816,175.81000000,7.51000000,179.90000000
251,0,-0.11300000,0.06500000,-0.99000000,-0.27000000,-0.07000000,0.27000000,0.00238561,-0.11474498,-0.08594616,175.81000000,7.51000000,179.90000000
252,0,-0.11500000,0.07800000,-0.99100000,0.02000000,0.05000000,0.17000000,0.00241176,-0.11467962,-0.08572395,175.81000000,7.50000000,179.90000000
253,0,-0.11900000,0.07500000,-0.99000000,0.05000000,-0.02000000,0.03000000,0.00515720,-0.11577780,-0.08407669,175.81000000,7.50000000,179.90000000
254,0,-0.11900000,0.07000000,-0.99100000,0.08000000,-0.09000000,-0.07000000,0.00525013,-0.11588235,-0.08415800,175.81000000,7.49000000,179.90000000
255,0,-0.12600000,0.07300000,-0.98700000,0.08000000,-0.05000000,0.18000000,0.00533467,-0.11593519,-0.08396778,175.81000000,7.48000000,179.90000000
256,0,-0.11600000,0.07600000,-0.98900000,-0.12000000,0.10000000,0.10000000,0.00521021,-0.11583147,-0.08386406,175.81000000,7.48000000,179.90000000
257,0,-0.11700000,0.07100000,-0.99100000,-0.17000000,0.16000000,0.16000000,0.00502958,-0.11566147,-0.08369406,175.81000000,7.48000000,179.90000000
258,0,-0.11900000,0.07400000,-0.99400000,0.14000000,-0.04000000,-0.13000000,0.00517777,-0.11570381,-0.08383166,175.81000000,7.48000000,179.90000000
259,0,-0.11300000,0.07100000,-0.99600000,0.12000000,-0.18000000,0.10000000,0.01181346,-0.12565735,-0.07830191,175.81000000,7.47000000,179.90000000
260,0,-0.12000000,0.07800000,-0.98900000,0.01000000,0.04000000,0.18000000,0.01182594,-0.12560743,-0.07807727,175.81000000,7.47000000,179.89000000
261,0,-0.11900000,0.06400000,-0.99000000,0.13000000,0.10000000,-0.21000000,0.01198285,-0.12548674,-0.07833074,175.81000000,7.46000000,179.90000000
262,0,-0.11300000,0.07100000,-0.99300000,-0.02000000,0.02000000,-0.06000000,0.01195976,-0.12546365,-0.07840000,175.81000000,7.45000000,179.90000000
263,0,-0.11500000,0.07100000,-0.99600000,0.15000000,-0.10000000,0.14000000,0.01213766,-0.12558225,-0.07823396,175.81000000,7.45000000,179.90000000
264,0,-0.11800000,0.07100000,-0.99400000,-0.07000000,0.15000000,-0.20000000,0.01202190,-0.12533418,-0.07856471,175.81000000,7.45000000,179.90000000
265,0,-0.11400000,0.07400000,-0.99000000,0.20000000,0.06000000,-0.04000000,0.02296004,-0.12205274,-0.08075234,175.81000000,7.45000000,179.90000000
266,0,-0.11900000,0.07300000,-0.99300000,0.05000000,0.12000000,0.02000000,0.02302667,-0.12189283,-0.08072569,175.81000000,7.45000000,179.90000000
267,0,-0.11300000,0.07800000,-0.99400000,-0.06000000,0.06000000,0.10000000,0.02294985,-0.12181600,-0.08059765,175.81000000,7.44000000,179.90000000
268,0,-0.11500000,0.06900000,-0.99200000,0.01000000,-0.03000000,-0.18000000,0.02296141,-0.12185069,-0.08080581,175.81000000,7.43000000,179.90000000
269,0,-0.11800000,0.07200000,-0.99200000,0.29000000,-0.10000000,0.01000000,0.02328475,-0.12196219,-0.08079466,175.81000000,7.43000000,179.90000000
270,0,-0.11800000,0.07600000,-0.98900000,-0.05000000,0.15000000,0.10000000,0.02323031,-0.12179888,-0.08068578,175.81000000,7.43000000,179.90000000
271,0,-0.11300000,0.06700000,-0.99100000,0.10000000,0.02000000,-0.05000000,0.02865170,-0.12071460,-0.08339648,175.81000000,7.42000000,179.90000000
272,0,-0.11600000,0.07600000,-0.99200000,0.08000000,0.14000000,-0.21000000,0.02873710,-0.12056515,-0.08362065,175.81000000,7.42000000,179.90000000
273,0,-0.11600000,0.07500000,-0.98700000,0.09000000,0.14000000,-0.00000000,0.02882826,-0.12042335,-0.08362065,175.82000000,7.41000000,179.90000000
274,0,-0.11500000,0.07200000,-0.98800000,-0.07000000,0.01000000,-0.21000000,0.02875699,-0.12041317,-0.08383446,175.81000000,7.41000000,179.90000000
275,0,-0.11200000,0.07600000,-0.98600000,0.07000000,0.02000000,0.06000000,0.02882974,-0.12039238,-0.08377210,175.81000000,7.41000000,179.90000000
276,0,-0.11200000,0.07300000,-0.99400000,0.13000000,-0.06000000,0.17000000,0.02896247,-0.12045364,-0.08359853,175.81000000,7.41000000,179.90000000
277,0,-0.11600000,0.07300000,-0.98900000,-0.34000000,0.17000000,-0.04000000,0.01014577,-0.11104529,-0.08581226,175.81000000,7.40000000,179.89000000
278,0,-0.11600000,0.07300000,-0.99200000,0.34000000,-0.07000000,0.21000000,0.01052015,-0.11112236,-0.08558102,175.81000000,7.40000000,179.89000000
279,0,-0.11500000,0.07100000,-0.99400000,-0.10000000,0.06000000,0.10000000,0.01041309,-0.11105813,-0.08547396,175.81000000,7.39000000,179.89000000
280,0,-0.11600000,0.07200000,-0.98700000,0.01000000,0.27000000,-0.03000000,0.01042385,-0.11076752,-0.08550625,175.81000000,7.39000000,179.89000000
281,0,-0.11700000,0.07300000,-0.99100000,-0.15000000,-0.05000000,0.08000000,0.01025961,-0.11082227,-0.08541866,175.81000000,7.39000000,179.89000000
282,0,-0.11600000,0.07700000,-0.99000000,-0.12000000,-0.19000000,-0.09000000,0.01013040,-0.11102686,-0.08551557,175.81000000,7.39000000,179.89000000
283,0,-0.12000000,0.07100000,-0.99100000,-0.17000000,-0.05000000,0.01000000,0.00058639,-0.11383392,-0.08495416,175.81000000,7.38000000,179.89000000
284,0,-0.11900000,0.07200000,-0.98900000,0.15000000,-0.09000000,-0.02000000,0.00075266,-0.11393369,-0.08497633,175.81000000,7.38000000,179.89000000
285,0,-0.11100000,0.07200000,-0.98900000,-0.19000000,-0.17000000,0.18000000,0.00054798,-0.11411682,-0.08478242,175.81000000,7.38000000,179.89000000
286,0,-0.11300000,0.07700000,-0.99200000,0.15000000,0.20000000,-0.06000000,0.00071261,-0.11389732,-0.08484827,175.81000000,7.37000000,179.89000000
287,0,-0.11100000,0.07200000,-0.98800000,0.20000000,-0.13000000,-0.10000000,0.00093188,-0.11403984,-0.08495791,175.81000000,7.37000000,179.89000000
288,0,-0.11400000,0.07300000,-0.98800000,-0.43000000,0.28000000,-0.23000000,0.00045902,-0.11373193,-0.08521084,175.81000000,7.37000000,179.89000000
289,0,-0.11900000,0.07500000,-0.99500000,-0.10000000,0.14000000,0.10000000,-0.00505059,-0.10601849,-0.07970124,175.81000000,7.36000000,179.89000000
290,0,-0.11600000,0.07300000,-0.98800000,0.11000000,0.27000000,0.05000000,-0.00492912,-0.10572035,-0.07964602,175.81000000,7.36000000,179.89000000
291,0,-0.10900000,0.07800000,-0.99400000,-0.03000000,0.12000000,-0.08000000,-0.00496095,-0.10559302,-0.07973091,175.81000000,7.35000000,179.89000000
292,0,-0.11500000,0.07100000,-0.98900000,0.23000000,-0.07000000,-0.02000000,-0.00471263,-0.10566860,-0.07975250,175.81000000,7.35000000,179.89000000
293,0,-0.11800000,0.07000000,-0.99800000,0.01000000,0.08000000,0.06000000,-0.00470183,-0.10558215,-0.07968767,175.81000000,7.35000000,179.89000000
294,0,-0.11400000,0.07300000,-0.99000000,0.03000000,0.12000000,-0.07000000,-0.00466937,-0.10545233,-0.07976339,175.81000000,7.34000000,179.89000000
295,0,-0.11300000,0.07100000,-0.99200000,0.03000000,-0.34000000,-0.22000000,-0.00301297,-0.12422486,-0.09191032,175.81000000,7.33000000,179.89000000
296,0,-0.11900000,0.07300000,-0.99200000,0.01000000,-0.06000000,0.03000000,-0.00300202,-0.12429054,-0.09187748,175.81000000,7.33000000,179.89000000
297,0,-0.11600000,0.06900000,-0.99200000,0.00000000,-0.18000000,-0.06000000,-0.00300202,-0.12448548,-0.09194246,175.81000000,7.33000000,179.89000000
298,0,-0.11200000,0.07200000,-0.99600000,0.06000000,-0.03000000,-0.20000000,-0.00293710,-0.12451794,-0.09215887,175.81000000,7.32000000,179.89000000
299,0,-0.11200000,0.07500000,-0.99200000,0.10000000,0.06000000,-0.07000000,-0.00282918,-0.12445319,-0.09223441,175.81000000,7.32000000,179.89000000
300,0,-0.11900000,0.07400000,-0.99300000,-0.07000000,0.14000000,-0.04000000,-0.00290574,-0.12430007,-0.09227816,175.81000000,7.31000000,179.89000000
301,0,-0.11600000,0.07100000,-0.98900000,-0.04000000,0.06000000,-0.05000000,-0.00514890,-0.12093534,-0.09508210,175.81000000,7.31000000,179.89000000
302,0,-0.11400000,0.07500000,-0.99100000,0.08000000,-0.17000000,0.37000000,-0.00506027,-0.12112366,-0.09467222,175.81000000,7.31000000,179.89000000
303,0,-0.12000000,0.07700000,-0.99400000,0.21000000,0.18000000,0.14000000,-0.00483169,-0.12092774,-0.09451983,175.81000000,7.31000000,179.89000000
304,0,-0.11500000,0.07300000,-0.99300000,-0.07000000,0.11000000,0.13000000,-0.00490723,-0.12080903,-0.09437954,175.81000000,7.31000000,179.89000000
305,0,-0.11700000,0.07000000,-0.99200000,-0.11000000,-0.00000000,-0.01000000,-0.00502516,-0.12080903,-0.09439026,175.81000000,7.30000000,179.89000000
306,0,-0.11900000,0.06900000,-0.98900000,-0.06000000,0.06000000,-0.10000000,-0.00508915,-0.12074503,-0.09449691,175.81000000,7.30000000,179.89000000
307,0,-0.11500000,0.07500000,-0.99000000,-0.01000000,0.16000000,-0.10000000,-0.00564368,-0.11187257,-0.10004220,175.81000000,7.29000000,179.89000000
308,0,-0.11300000,0.07300000,-0.99200000,0.07000000,-0.09000000,0.13000000,-0.00555365,-0.11198832,-0.09987501,175.81000000,7.29000000,179.89000000
309,0,-0.12300000,0.06800000,-0.99100000,-0.17000000,-0.06000000,0.15000000,-0.00574951,-0.11205745,-0.09970218,175.81000000,7.28000000,179.89000000
310,0,-0.11800000,0.07200000,-0.99200000,0.04000000,-0.14000000,0.02000000,-0.00570737,-0.11220496,-0.09968111,175.81000000,7.28000000,179.89000000
311,0,-0.11400000,0.07300000,-0.98900000,-0.04000000,-0.00000000,0.13000000,-0.00574828,-0.11220496,-0.09954813,175.81000000,7.28000000,179.88000000
312,0,-0.11500000,0.07000000,-0.99100000,0.03000000,0.03000000,0.06000000,-0.00571794,-0.11217462,-0.09948744,175.81000000,7.28000000,179.88000000
313,0,-0.11600000,0.07200000,-0.98900000,0.11000000,-0.20000000,0.03000000,0.00032662,-0.12316473,-0.09783893,175.81000000,7.28000000,179.88000000
314,0,-0.11700000,0.07400000,-0.99400000,0.18000000,0.22000000,0.04000000,0.00053491,-0.12291016,-0.09779264,175.81000000,7.27000000,179.88000000
315,0,-0.11700000,0.07500000,-0.98900000,-0.06000000,0.18000000,-0.06000000,0.00046418,-0.12269797,-0.09786337,175.81000000,7.27000000,179.88000000
316,0,-0.11900000,0.07100000,-0.98800000,-0.08000000,-0.07000000,0.07000000,0.00037434,-0.12277658,-0.09778476,175.81000000,7.26000000,179.88000000
317,0,-0.11700000,0.07800000,-0.98700000,0.07000000,-0.18000000,-0.02000000,0.00044794,-0.12296586,-0.09780579,175.81000000,7.26000000,179.88000000
318,0,-0.11500000,0.07400000,-0.98900000,0.10000000,-0.14000000,0.09000000,0.00055307,-0.12311304,-0.09771117,175.81000000,7.26000000,179.89000000
319,0,-0.11400000,0.07700000,-0.99000000,-0.04000000,-0.00000000,-0.03000000,-0.00167863,-0.12311304,-0.09938494,175.81000000,7.25000000,179.88000000
320,0,-0.12600000,0.07200000,-0.98900000,-0.16000000,-0.08000000,-0.02000000,-0.00185000,-0.12319872,-0.09940637,175.81000000,7.25000000,179.88000000
321,0,-0.11600000,0.07500000,-0.99000000,-0.05000000,0.01000000,-0.01000000,-0.00190085,-0.12318855,-0.09941654,175.81000000,7.25000000,179.88000000
322,0,-0.11600000,0.07600000,-0.99200000,0.08000000,-0.09000000,0.06000000,-0.00182021,-0.12327926,-0.09935606,175.81000000,7.25000000,179.88000000
323,0,-0.11400000,0.07100000,-0.98700000,0.01000000,0.21000000,-0.14000000,-0.00180994,-0.12306340,-0.09949997,175.81000000,7.24000000,179.88000000
324,0,-0.11400000,0.07300000,-0.99100000,-0.24000000,-0.03000000,0.14000000,-0.00205538,-0.12309408,-0.09935680,175.81000000,7.24000000,179.88000000
325,0,-0.11400000,0.07400000,-0.98900000,-0.03000000,0.01000000,0.05000000,-0.00371790,-0.12253991,-0.09658593,175.81000000,7.24000000,179.88000000
326,0,-0.11700000,0.06800000,-0.98900000,0.06000000,0.06000000,0.00000000,-0.00365408,-0.12247609,-0.09658593,175.81000000,7.23000000,179.88000000
327,0,-0.11200000,0.07300000,-0.98900000,0.15000000,-0.11000000,0.08000000,-0.00350078,-0.12258850,-0.09650417,175.81000000,7.23000000,179.88000000
328,0,-0.11600000,0.07200000,-0.99800000,0.09000000,0.01000000,0.02000000,-0.00340969,-0.12257838,-0.09648393,175.81000000,7.23000000,179.88000000
329,0,-0.11300000,0.06900000,-0.98800000,-0.16000000,0.00000000,0.09000000,-0.00357053,-0.12257838,-0.09639345,175.81000000,7.22000000,179.88000000
330,0,-0.11700000,0.07800000,-0.99400000,-0.06000000,0.01000000,-0.14000000,-0.00363088,-0.12256832,-0.09653426,175.81000000,7.22000000,179.88000000
331,0,-0.11700000,0.07500000,-0.98600000,-0.06000000,-0.02000000,-0.06000000,-0.00697150,-0.12368186,-0.09987488,175.81000000,7.22000000,179.88000000
332,0,-0.11700000,0.07300000,-0.99100000,-0.00000000,-0.06000000,0.06000000,-0.00697150,-0.12375616,-0.09980059,175.81000000,7.22000000,179.88000000
333,0,-0.11700000,0.07200000,-0.99300000,0.25000000,0.16000000,-0.13000000,-0.00671279,-0.12359058,-0.09993511,175.81000000,7.21000000,179.88000000
334,0,-0.12000000,0.07600000,-0.99400000,-0.10000000,0.12000000,-0.11000000,-0.00681327,-0.12347001,-0.10004564,175.81000000,7.21000000,179.89000000
335,0,-0.11600000,0.07200000,-0.99100000,0.05000000,0.09000000,0.14000000,-0.00676320,-0.12337987,-0.09990544,175.81000000,7.21000000,179.88000000
336,0,-0.12000000,0.07500000,-0.99000000,0.09000000,0.06000000,-0.04000000,-0.00667276,-0.12331959,-0.09994563,175.81000000,7.20000000,179.88000000
337,0,-0.11700000,0.07200000,-0.99300000,-0.02000000,-0.04000000,0.10000000,-0.00779475,-0.12556357,-0.09433568,175.81000000,7.20000000,179.89000000
338,0,-0.11800000,0.07500000,-0.98700000,0.13000000,0.12000000,0.01000000,-0.00765576,-0.12543527,-0.09432499,175.81000000,7.19000000,179.88000000
339,0,-0.11900000,0.07300000,-0.99400000,-0.31000000,-0.06000000,-0.12000000,-0.00796747,-0.12549560,-0.09444565,175.81000000,7.19000000,179.89000000
340,0,-0.11500000,0.06800000,-0.99100000,0.33000000,-0.09000000,-0.18000000,-0.00763982,-0.12558496,-0.09462437,175.81000000,7.19000000,179.89000000
341,0,-0.11700000,0.06600000,-0.99300000,-0.05000000,-0.19000000,-0.05000000,-0.00768942,-0.12577342,-0.09467396,175.81000000,7.19000000,179.89000000
342,0,-0.11600000,0.06900000,-0.98900000,-0.17000000,-0.22000000,0.25000000,-0.00786068,-0.12599505,-0.09442211,175.81000000,7.18000000,179.89000000
343,0,-0.11800000,0.06900000,-0.99400000,0.22000000,-0.12000000,0.03000000,0.00434148,-0.13265078,-0.09275818,175.81000000,7.18000000,179.89000000
344,0,-0.12000000,0.07200000,-0.99000000,0.09000000,-0.10000000,0.18000000,0.00443824,-0.13275829,-0.09256465,175.81000000,7.18000000,179.89000000
345,0,-0.11600000,0.07700000,-0.98700000,0.09000000,0.00000000,0.00000000,0.00452975,-0.13275829,-0.09256465,175.81000000,7.17000000,179.89000000
346,0,-0.11900000,0.07000000,-0.99700000,-0.03000000,-0.18000000,-0.12000000,0.00449953,-0.13293963,-0.09268554,175.81000000,7.17000000,179.89000000
347,0,-0.11900000,0.07300000,-0.99200000,0.20000000,-0.07000000,-0.09000000,0.00470025,-0.13300988,-0.09277587,175.81000000,7.17000000,179.89000000
348,0,-0.11300000,0.07500000,-0.99200000,-0.15000000,0.06000000,-0.07000000,0.00454838,-0.13294913,-0.09284674,175.81000000,7.16000000,179.89000000
349,0,-0.11700000,0.07200000,-0.98800000,-0.05000000,0.05000000,0.13000000,0.00176152,-0.13016227,-0.08560088,175.81000000,7.16000000,179.89000000
350,0,-0.11700000,0.07400000,-0.99200000,0.13000000,0.05000000,0.04000000,0.00190082,-0.13010869,-0.08555802,175.81000000,7.16000000,179.89000000
351,0,-0.11600000,0.07200000,-0.99600000,-0.03000000,0.09000000,-0.18000000,0.00187043,-0.13001753,-0.08574034,175.81000000,7.15000000,179.89000000
352,0,-0.11500000,0.07400000,-0.99000000,-0.09000000,0.09000000,-0.27000000,0.00178023,-0.12992733,-0.08601093,175.81000000,7.15000000,179.89000000
353,0,-0.11700000,0.07400000,-0.99500000,-0.00000000,0.17000000,0.11000000,0.00178023,-0.12975412,-0.08589885,175.81000000,7.15000000,179.89000000
354,0,-0.11900000,0.07200000,-0.98700000,-0.03000000,-0.03000000,0.01000000,0.00174960,-0.12978476,-0.08588864,175.81000000,7.15000000,179.89000000
355,0,-0.11900000,0.06900000,-0.99000000,0.09000000,-0.01000000,-0.16000000,0.00680188,-0.13034613,-0.09487048,175.81000000,7.14000000,179.89000000
356,0,-0.11500000,0.07500000,-0.99000000,0.17000000,-0.33000000,0.09000000,0.00698250,-0.13069675,-0.09477485,175.81000000,7.14000000,179.89000000
357,0,-0.10900000,0.07100000,-0.99300000,0.23000000,-0.00000000,-0.05000000,0.00721553,-0.13069675,-0.09482551,175.81000000,7.14000000,179.89000000
358,0,-0.11800000,0.07200000,-0.98900000,-0.27000000,0.08000000,-0.12000000,0.00694288,-0.13061597,-0.09494669,175.81000000,7.13000000,179.89000000
359,0,-0.11500000,0.07500000,-0.98800000,0.12000000,-0.03000000,0.07000000,0.00706566,-0.13064666,-0.09487506,175.81000000,7.13000000,179.89000000
360,0,-0.11200000,0.07300000,-0.99200000,0.07000000,-0.07000000,-0.01000000,0.00713641,-0.13071741,-0.09488517,175.81000000,7.13000000,179.89000000
361,0,-0.11300000,0.07600000,-0.99100000,-0.15000000,0.10000000,-0.06000000,-0.00162989,-0.12487322,-0.09839169,175.81000000,7.12000000,179.89000000
362,0,-0.11500000,0.07500000,-0.98800000,-0.13000000,0.13000000,0.30000000,-0.00177498,-0.12472812,-0.09805685,175.81000000,7.12000000,179.89000000
363,0,-0.12000000,0.07500000,-0.98800000,-0.11000000,0.08000000,-0.15000000,-0.00188737,-0.12464638,-0.09821011,175.81000000,7.11000000,179.89000000
364,0,-0.12100000,0.07400000,-0.99100000,0.09000000,-0.01000000,0.06000000,-0.00179591,-0.12465654,-0.09814913,175.81000000,7.11000000,179.89000000
365,0,-0.11400000,0.06900000,-0.98800000,-0.27000000,0.06000000,0.00000000,-0.00207068,-0.12459548,-0.09814913,175.81000000,7.11000000,179.89000000
366,0,-0.11300000,0.06900000,-0.99100000,-0.10000000,0.11000000,0.21000000,-0.00217271,-0.12448325,-0.09793487,175.81000000,7.10000000,179.89000000
367,0,-0.11900000,0.07000000,-0.98900000,-0.09000000,-0.16000000,-0.06000000,-0.00226692,-0.12465073,-0.09799768,175.81000000,7.10000000,179.89000000
368,0,-0.11900000,0.07300000,-0.99500000,-0.15000000,0.30000000,-0.30000000,-0.01058336,-0.10801786,-0.11463055,175.81000000,7.10000000,179.89000000
369,0,-0.11700000,0.07400000,-0.99300000,0.06000000,-0.00000000,0.10000000,-0.01051809,-0.10801786,-0.11452177,175.81000000,7.10000000,179.89000000
370,0,-0.11600000,0.07500000,-0.99200000,-0.15000000,0.14000000,0.06000000,-0.01068405,-0.10786297,-0.11445539,175.81000000,7.09000000,179.89000000
371,0,-0.11600000,0.06400000,-0.99100000,-0.09000000,0.29000000,-0.06000000,-0.01077834,-0.10755913,-0.11451825,175.81000000,7.09000000,179.89000000
372,0,-0.11400000,0.07500000,-0.98900000,0.38000000,-0.17000000,0.02000000,-0.01038012,-0.10773728,-0.11449730,175.81000000,7.09000000,179.89000000
373,0,-0.11900000,0.07600000,-0.99200000,-0.03000000,-0.04000000,0.01000000,-0.01041115,-0.10777865,-0.11448695,175.81000000,7.08000000,179.89000000
374,0,-0.11400000,0.07600000,-0.98900000,0.14000000,0.15000000,0.00000000,-0.00255348,-0.09935972,-0.11448695,175.81000000,7.08000000,179.89000000
375,0,-0.11500000,0.06600000,-0.98900000,-0.05000000,-0.13000000,0.09000000,-0.00260658,-0.09949778,-0.11439137,175.81000000,7.08000000,179.89000000
376,0,-0.11900000,0.07000000,-0.99000000,0.31000000,-0.16000000,0.09000000,-0.00229280,-0.09965973,-0.11430027,175.81000000,7.08000000,179.89000000
377,0,-0.11400000,0.06900000,-0.98500000,0.02000000,0.07000000,-0.06000000,-0.00227246,-0.09958855,-0.11436129,175.81000000,7.08000000,179.89000000
378,0,-0.11400000,0.07400000,-0.98700000,0.14000000,-0.08000000,0.09000000,-0.00213039,-0.09966973,-0.11426996,175.81000000,7.08000000,179.89000000
379,0,-0.11700000,0.07200000,-0.98900000,0.09000000,0.12000000,0.27000000,-0.00201376,-0.09951422,-0.11392006,175.81000000,7.07000000,179.89000000
380,0,-0.11900000,0.07500000,-0.99000000,0.01000000,-0.08000000,-0.17000000,-0.00146204,-0.10392795,-0.12329923,175.81000000,7.07000000,179.89000000
381,0,-0.11400000,0.07100000,-0.98900000,-0.05000000,-0.18000000,0.06000000,-0.00151767,-0.10412821,-0.12323248,175.81000000,7.07000000,179.89000000
382,0,-0.11200000,0.07000000,-0.98900000,0.07000000,-0.02000000,-0.28000000,-0.00144253,-0.10414968,-0.12353305,175.81000000,7.07000000,179.89000000
383,0,-0.11500000,0.07100000,-0.98900000,0.12000000,-0.03000000,-0.17000000,-0.00131168,-0.10418239,-0.12371842,175.81000000,7.07000000,179.89000000
384,0,-0.11600000,0.07200000,-0.98800000,0.07000000,-0.07000000,-0.05000000,-0.00123594,-0.10425814,-0.12377252,175.81000000,7.07000000,179.89000000
385,0,-0.11700000,0.07200000,-0.99200000,-0.03000000,-0.03000000,-0.12000000,-0.00126886,-0.10429106,-0.12390419,175.81000000,7.06000000,179.89000000
386,0,-0.11600000,0.07300000,-0.99400000,-0.09000000,-0.09000000,-0.06000000,-0.00624754,-0.10926974,-0.12722332,175.81000000,7.06000000,179.89000000
387,0,-0.11500000,0.07400000,-0.98800000,0.06000000,-0.29000000,-0.30000000,-0.00618090,-0.10959183,-0.12755651,175.81000000,7.06000000,179.89000000
388,0,-0.11400000,0.07700000,-0.99300000,-0.22000000,-0.12000000,0.19000000,-0.00641690,-0.10972056,-0.12735269,175.81000000,7.06000000,179.89000000
389,0,-0.12100000,0.07300000,-0.98900000,-0.02000000,0.08000000,-0.11000000,-0.00643866,-0.10963354,-0.12747235,175.81000000,7.06000000,179.89000000
390,0,-0.11700000,0.07300000,-0.99000000,-0.21000000,-0.06000000,0.00000000,-0.00668321,-0.10970341,-0.12747235,175.81000000,7.06000000,179.89000000
391,0,-0.11000000,0.07600000,-0.98900000,0.02000000,0.06000000,0.10000000,-0.00665807,-0.10962797,-0.12734662,175.81000000,7.05000000,179.89000000
392,0,-0.11300000,0.07500000,-0.99000000,-0.05000000,-0.07000000,0.04000000,-0.00944535,-0.11353017,-0.12511679,175.81000000,7.05000000,179.89000000
393,0,-0.11900000,0.07600000,-0.98700000,-0.07000000,-0.19000000,0.14000000,-0.00952273,-0.11374020,-0.12496203,175.81000000,7.05000000,179.89000000
394,0,-0.11700000,0.07600000,-0.98900000,0.06000000,-0.15000000,-0.07000000,-0.00946070,-0.11389528,-0.12503440,175.81000000,7.05000000,179.89000000
395,0,-0.11500000,0.07200000,-0.99000000,-0.04000000,-0.16000000,0.21000000,-0.00950153,-0.11405861,-0.12482004,175.81000000,7.05000000,179.89000000
396,0,-0.11800000,0.07200000,-0.99200000,-0.14000000,-0.13000000,-0.14000000,-0.00964283,-0.11418982,-0.12496135,175.81000000,7.05000000,179.89000000
397,0,-0.11800000,0.06800000,-0.99300000,0.14000000,0.15000000,0.12000000,-0.00950126,-0.11403813,-0.12484000,175.81000000,7.05000000,179.89000000
398,0,-0.12000000,0.07200000,-0.99500000,-0.01000000,0.00000000,-0.25000000,-0.01005421,-0.11403813,-0.13866359,175.81000000,7.05000000,179.89000000
399,0,-0.11600000,0.07500000,-0.99000000,0.06000000,0.06000000,-0.03000000,-0.00999024,-0.11397417,-0.13869558,175.81000000,7.04000000,179.89000000
400,0,-0.11800000,0.07200000,-0.98800000,-0.14000000,-0.11000000,0.25000000,-0.01013458,-0.11408758,-0.13843782,175.81000000,7.04000000,179.89000000
401,0,-0.11800000,0.07200000,-0.98900000,0.17000000,-0.04000000,0.04000000,-0.00996004,-0.11412865,-0.13839675,175.81000000,7.04000000,179.89000000
402,0,-0.11600000,0.07600000,-0.99300000,-0.16000000,-0.05000000,0.00000000,-0.01012111,-0.11417899,-0.13839675,175.81000000,7.04000000,179.89000000
403,0,-0.11500000,0.07200000,-0.99400000,0.13000000,0.00000000,0.06000000,-0.00998197,-0.11417899,-0.13833253,175.81000000,7.04000000,179.89000000
404,0,-0.11400000,0.07500000,-0.99300000,-0.05000000,-0.13000000,0.35000000,-0.01275647,-0.12139270,-0.11891099,175.81000000,7.04000000,179.89000000
405,0,-0.11900000,0.07200000,-0.98900000,-0.07000000,0.00000000,0.27000000,-0.01282991,-0.12139270,-0.11862772,175.81000000,7.04000000,179.89000000
406,0,-0.11200000,0.07100000,-0.99200000,-0.08000000,0.14000000,0.12000000,-0.01291083,-0.12125110,-0.11850634,175.81000000,7.04000000,179.89000000
407,0,-0.11200000,0.07200000,-0.99200000,-0.12000000,-0.09000000,-0.18000000,-0.01303089,-0.12134114,-0.11868643,175.81000000,7.04000000,179.89000000
408,0,-0.11300000,0.07700000,-0.99000000,0.22000000,0.10000000,0.07000000,-0.01281083,-0.12124111,-0.11861641,175.80000000,7.03000000,179.89000000
409,0,-0.11700000,0.07900000,-0.98700000,0.03000000,0.19000000,-0.14000000,-0.01278065,-0.12104998,-0.11875725,175.80000000,7.03000000,179.89000000
410,0,-0.11600000,0.07300000,-0.98900000,0.22000000,-0.06000000,0.07000000,-0.00037613,-0.12443303,-0.11481036,175.80000000,7.03000000,179.89000000
411,0,-0.12100000,0.07400000,-0.99100000,0.20000000,0.14000000,0.01000000,-0.00015834,-0.12428057,-0.11479947,175.80000000,7.03000000,179.89000000
412,0,-0.11200000,0.07400000,-0.98800000,0.06000000,0.00000000,-0.30000000,-0.00009735,-0.12428057,-0.11510441,175.80000000,7.02000000,179.89000000
413,0,-0.11500000,0.07100000,-0.98900000,-0.02000000,-0.04000000,0.10000000,-0.00011786,-0.12432159,-0.11500186,175.81000000,7.02000000,179.89000000
414,0,-0.11900000,0.07300000,-0.98600000,0.19000000,0.07000000,0.03000000,0.00007473,-0.12425064,-0.11497145,175.80000000,7.02000000,179.89000000
415,0,-0.11400000,0.07100000,-0.99100000,0.06000000,0.03000000,-0.13000000,0.00013529,-0.12422036,-0.11510266,175.80000000,7.02000000,179.89000000
416,0,-0.11600000,0.07400000,-0.99000000,-0.16000000,0.20000000,0.15000000,-0.00872543,-0.11314446,-0.10679574,175.81000000,7.02000000,179.89000000
417,0,-0.11600000,0.07600000,-0.99000000,-0.03000000,0.11000000,0.21000000,-0.00875723,-0.11302788,-0.10657317,175.80000000,7.01000000,179.89000000
418,0,-0.11600000,0.07200000,-0.99300000,-0.21000000,-0.06000000,-0.00000000,-0.00897735,-0.11309077,-0.10657317,175.81000000,7.01000000,179.89000000
419,0,-0.11700000,0.07000000,-0.99100000,0.13000000,-0.23000000,-0.09000000,-0.00884465,-0.11332555,-0.10666504,175.81000000,7.01000000,179.89000000
420,0,-0.12000000,0.07200000,-0.99500000,0.16000000,0.15000000,-0.02000000,-0.00868209,-0.11317315,-0.10668536,175.81000000,7.01000000,179.89000000
421,0,-0.11500000,0.07700000,-0.99300000,0.16000000,-0.06000000,0.18000000,-0.00851911,-0.11323426,-0.10650200,175.81000000,7.01000000,179.89000000
422,0,-0.11700000,0.07700000,-0.99300000,-0.07000000,0.20000000,-0.11000000,-0.01247156,-0.10194155,-0.11271300,175.81000000,7.01000000,179.89000000
423,0,-0.11900000,0.07600000,-0.99300000,-0.11000000,0.18000000,0.10000000,-0.01258589,-0.10175446,-0.11260906,175.81000000,7.01000000,179.89000000
424,0,-0.11000000,0.07200000,-0.99000000,0.14000000,-0.07000000,-0.10000000,-0.01244492,-0.10182495,-0.11270975,175.81000000,7.00000000,179.89000000
425,0,-0.11700000,0.07200000,-0.99500000,0.03000000,0.07000000,0.05000000,-0.01241451,-0.10175399,-0.11265907,175.81000000,7.00000000,179.89000000
426,0,-0.11300000,0.07400000,-0.99000000,0.12000000,-0.03000000,0.04000000,-0.01229407,-0.10178410,-0.11261893,175.81000000,7.00000000,179.89000000
427,0,-0.11600000,0.07500000,-0.98900000,-0.01000000,0.14000000,-0.04000000,-0.01230411,-0.10164363,-0.11265906,175.81000000,7.00000000,179.89000000
428,0,-0.11700000,0.06700000,-0.99500000,-0.10000000,0.04000000,-0.07000000,-0.01785138,-0.09942472,-0.11654215,175.81000000,7.00000000,179.89000000
429,0,-0.11700000,0.07400000,-0.99300000,0.22000000,-0.13000000,-0.05000000,-0.01762083,-0.09956095,-0.11659455,175.81000000,7.00000000,179.89000000
430,0,-0.11700000,0.07800000,-0.98900000,-0.12000000,0.15000000,0.04000000,-0.01774109,-0.09941063,-0.11655446,175.81000000,7.00000000,179.89000000
431,0,-0.11800000,0.07300000,-0.99000000,-0.16000000,0.01000000,-0.18000000,-0.01790113,-0.09940063,-0.11673451,175.81000000,6.99000000,179.89000000
432,0,-0.11400000,0.07100000,-0.99300000,0.15000000,0.06000000,-0.17000000,-0.01775131,-0.09934070,-0.11690432,175.81000000,6.99000000,179.89000000
433,0,-0.11700000,0.07200000,-0.98800000,-0.16000000,-0.05000000,0.09000000,-0.01791375,-0.09939146,-0.11681294,175.81000000,6.99000000,179.89000000
434,0,-0.11300000,0.07200000,-0.98800000,0.02000000,0.15000000,0.06000000,-0.01680266,-0.09105825,-0.11347966,175.81000000,6.99000000,179.89000000
435,0,-0.11900000,0.07300000,-0.99000000,-0.05000000,-0.08000000,-0.11000000,-0.01685621,-0.09114394,-0.11359747,175.81000000,6.98000000,179.89000000
436,0,-0.11400000,0.06700000,-0.98800000,0.12000000,0.32000000,-0.22000000,-0.01673378,-0.09081744,-0.11382194,175.81000000,6.98000000,179.89000000
437,0,-0.12000000,0.08000000,-0.99200000,0.03000000,0.06000000,-0.09000000,-0.01670202,-0.09075394,-0.11391720,175.81000000,6.98000000,179.89000000
438,0,-0.11500000,0.07300000,-0.99000000,0.08000000,-0.08000000,0.03000000,-0.01661752,-0.09083844,-0.11388551,175.81000000,6.98000000,179.89000000
439,0,-0.11400000,0.07400000,-0.99000000,0.06000000,0.04000000,-0.30000000,-0.01655404,-0.09079612,-0.11420290,175.81000000,6.98000000,179.89000000
440,0,-0.11300000,0.07300000,-0.99200000,-0.06000000,0.09000000,-0.18000000,-0.01988092,-0.08580581,-0.12418353,175.81000000,6.98000000,179.89000000
441,0,-0.11500000,0.07300000,-0.99500000,0.25000000,-0.13000000,0.08000000,-0.01961881,-0.08594210,-0.12409965,175.81000000,6.98000000,179.90000000
442,0,-0.11800000,0.07500000,-0.99000000,-0.24000000,-0.00000000,0.21000000,-0.01985807,-0.08594210,-0.12389030,175.81000000,6.98000000,179.89000000
443,0,-0.12100000,0.06800000,-0.99200000,0.03000000,-0.10000000,-0.37000000,-0.01982821,-0.08604165,-0.12425863,175.81000000,6.97000000,179.89000000
444,0,-0.11500000,0.07500000,-0.99200000,0.00000000,0.05000000,0.09000000,-0.01982821,-0.08599027,-0.12416614,175.81000000,6.97000000,179.89000000
445,0,-0.11600000,0.07700000,-0.98900000,0.00000000,-0.14000000,0.28000000,-0.01982821,-0.08613214,-0.12388239,175.81000000,6.97000000,179.89000000
446,0,-0.11500000,0.07700000,-0.99400000,0.10000000,-0.03000000,0.06000000,-0.01420104,-0.08782029,-0.12050609,175.81000000,6.97000000,179.89000000
447,0,-0.11200000,0.07500000,-0.99200000,0.15000000,-0.36000000,0.08000000,-0.01404485,-0.08819515,-0.12042279,175.81000000,6.97000000,179.89000000
448,0,-0.11200000,0.07100000,-0.98700000,-0.15000000,-0.17000000,-0.06000000,-0.01419403,-0.08836422,-0.12048246,175.81000000,6.97000000,179.89000000
449,0,-0.11500000,0.07400000,-0.99100000,0.05000000,-0.09000000,-0.02000000,-0.01414438,-0.08845360,-0.12050233,175.81000000,6.97000000,179.90000000
450,0,-0.11000000,0.07000000,-0.99100000,0.17000000,0.20000000,0.12000000,-0.01396562,-0.08824330,-0.12037614,175.81000000,6.96000000,179.90000000
451,0,-0.11700000,0.07500000,-0.99000000,0.23000000,-0.25000000,0.40000000,-0.01373397,-0.08849509,-0.11997327,175.81000000,6.96000000,179.89000000
452,0,-0.11000000,0.07100000,-0.99100000,-0.12000000,0.18000000,0.12000000,-0.02040248,-0.07849233,-0.11330476,175.81000000,6.96000000,179.89000000
453,0,-0.11300000,0.07500000,-0.98700000,-0.02000000,0.06000000,-0.12000000,-0.02042405,-0.07842760,-0.11343420,175.81000000,6.96000000,179.90000000
454,0,-0.11800000,0.07000000,-0.99100000,0.06000000,-0.03000000,0.25000000,-0.02036287,-0.07845820,-0.11317925,175.81000000,6.96000000,179.89000000
455,0,-0.11700000,0.07600000,-0.98800000,-0.02000000,-0.08000000,-0.17000000,-0.02038322,-0.07853961,-0.11335225,175.81000000,6.96000000,179.89000000
456,0,-0.11400000,0.07600000,-0.99500000,0.03000000,-0.06000000,0.23000000,-0.02035307,-0.07859990,-0.11312115,175.81000000,6.96000000,179.89000000
457,0,-0.11700000,0.06800000,-0.98800000,0.06000000,0.09000000,-0.15000000,-0.02029277,-0.07850945,-0.11327190,175.81000000,6.95000000,179.89000000
458,0,-0.11700000,0.07000000,-0.99200000,-0.13000000,-0.02000000,0.23000000,-0.02761909,-0.07963657,-0.10030995,175.81000000,6.95000000,179.89000000
459,0,-0.12200000,0.07000000,-0.99100000,0.05000000,0.02000000,-0.00000000,-0.02756679,-0.07961565,-0.10030995,175.81000000,6.95000000,179.89000000
460,0,-0.11400000,0.07500000,-0.99000000,0.18000000,0.06000000,0.05000000,-0.02738670,-0.07955562,-0.10025993,175.81000000,6.95000000,179.89000000
461,0,-0.11200000,0.07300000,-0.98800000,-0.06000000,-0.27000000,0.00000000,-0.02744801,-0.07983155,-0.10025993,175.81000000,6.95000000,179.89000000
462,0,-0.11600000,0.07200000,-0.99000000,-0.08000000,-0.07000000,-0.08000000,-0.02752823,-0.07990174,-0.10034014,175.81000000,6.95000000,179.89000000
463,0,-0.11200000,0.07500000,-0.99200000,-0.09000000,0.06000000,-0.12000000,-0.02761819,-0.07984176,-0.10046009,175.81000000,6.94000000,179.89000000
464,0,-0.11500000,0.07200000,-0.99000000,-0.08000000,0.11000000,-0.14000000,-0.03205825,-0.07373667,-0.10823021,175.81000000,6.94000000,179.89000000
465,0,-0.11400000,0.07300000,-0.99400000,0.24000000,0.05000000,-0.10000000,-0.03180692,-0.07368431,-0.10833493,175.81000000,6.94000000,179.89000000
466,0,-0.11400000,0.07600000,-0.99100000,0.00000000,0.12000000,-0.30000000,-0.03180692,-0.07356270,-0.10863894,175.82000000,6.94000000,179.89000000
467,0,-0.12100000,0.07300000,-0.98900000,0.22000000,-0.02000000,0.07000000,-0.03157983,-0.07358335,-0.10856669,175.81000000,6.94000000,179.89000000
468,0,-0.11400000,0.07100000,-0.98800000,-0.07000000,-0.03000000,0.09000000,-0.03165304,-0.07361472,-0.10847257,175.81000000,6.93000000,179.89000000
469,0,-0.11700000,0.06900000,-0.99300000,-0.16000000,0.17000000,0.04000000,-0.03181689,-0.07344062,-0.10843160,175.81000000,6.93000000,179.89000000
470,0,-0.11600000,0.07400000,-0.99300000,0.14000000,0.11000000,-0.05000000,-0.02405198,-0.06733962,-0.11120479,175.82000000,6.93000000,179.89000000
471,0,-0.11300000,0.07300000,-0.99100000,0.07000000,0.04000000,-0.15000000,-0.02395237,-0.06728270,-0.11141823,175.82000000,6.93000000,179.89000000
472,0,-0.11700000,0.07300000,-0.98800000,-0.03000000,0.06000000,-0.16000000,-0.02399427,-0.06719891,-0.11164168,175.82000000,6.93000000,179.89000000
473,0,-0.11800000,0.07000000,-0.99300000,-0.23000000,0.06000000,-0.00000000,-0.02431251,-0.06711589,-0.11164168,175.82000000,6.93000000,179.89000000
474,0,-0.11500000,0.07400000,-0.98700000,0.09000000,0.03000000,0.08000000,-0.02418959,-0.06707492,-0.11153242,175.82000000,6.93000000,179.90000000
475,0,-0.11800000,0.07600000,-0.98700000,-0.21000000,-0.16000000,-0.05000000,-0.02448741,-0.06730183,-0.11160333,175.82000000,6.92000000,179.90000000
476,0,-0.11800000,0.07300000,-0.98700000,0.26000000,-0.06000000,0.19000000,-0.01027285,-0.07058212,-0.10121576,175.82000000,6.93000000,179.90000000
477,0,-0.11700000,0.07300000,-0.98900000,0.08000000,-0.12000000,0.01000000,-0.01015217,-0.07076314,-0.10120068,175.82000000,6.92000000,179.90000000
478,0,-0.11700000,0.07000000,-0.99100000,0.02000000,-0.06000000,-0.07000000,-0.01012199,-0.07085367,-0.10130629,175.81000000,6.92000000,179.90000000
479,0,-0.11600000,0.07500000,-0.99000000,0.04000000,-0.11000000,0.23000000,-0.01006620,-0.07100711,-0.10098548,175.82000000,6.92000000,179.90000000
480,0,-0.11500000,0.07500000,-0.98700000,0.02000000,-0.12000000,-0.24000000,-0.01003736,-0.07118015,-0.10133157,175.81000000,6.92000000,179.90000000
481,0,-0.11200000,0.06800000,-0.99000000,-0.25000000,-0.11000000,0.00000000,-0.01042106,-0.07134898,-0.10133157,175.81000000,6.92000000,179.90000000
482,0,-0.11600000,0.07200000,-0.98800000,-0.11000000,-0.13000000,-0.24000000,-0.01659822,-0.07864927,-0.11480902,175.81000000,6.91000000,179.90000000
483,0,-0.11500000,0.06900000,-0.99400000,-0.01000000,-0.04000000,0.19000000,-0.01661341,-0.07871005,-0.11452030,175.81000000,6.91000000,179.90000000
484,0,-0.11700000,0.08000000,-0.99200000,-0.15000000,0.18000000,0.11000000,-0.01682994,-0.07845022,-0.11436152,175.81000000,6.91000000,179.90000000
485,0,-0.11400000,0.07300000,-0.98800000,-0.03000000,-0.01000000,0.09000000,-0.01687220,-0.07846431,-0.11423472,175.81000000,6.91000000,179.90000000
486,0,-0.11900000,0.07100000,-0.98900000,-0.03000000,-0.14000000,0.03000000,-0.01691360,-0.07865749,-0.11419332,175.81000000,6.91000000,179.90000000
487,0,-0.11500000,0.07100000,-0.99400000,0.14000000,0.26000000,0.07000000,-0.01671088,-0.07828100,-0.11409196,175.81000000,6.90000000,179.90000000
488,0,-0.11600000,0.07600000,-0.99400000,0.16000000,-0.03000000,-0.09000000,-0.01648190,-0.07832393,-0.11422076,175.81000000,6.90000000,179.90000000
489,0,-0.11500000,0.06900000,-0.99100000,-0.00000000,0.08000000,0.08000000,-0.01648190,-0.07407761,-0.10997444,175.81000000,6.90000000,179.90000000
490,0,-0.11100000,0.07400000,-0.98700000,0.03000000,0.16000000,0.13000000,-0.01644102,-0.07385955,-0.10979726,175.81000000,6.90000000,179.90000000
491,0,-0.11700000,0.07800000,-0.99000000,0.18000000,0.15000000,-0.04000000,-0.01620561,-0.07366337,-0.10984958,175.81000000,6.90000000,179.90000000
492,0,-0.11500000,0.07100000,-0.98400000,-0.08000000,0.18000000,0.08000000,-0.01631010,-0.07342827,-0.10974508,175.81000000,6.89000000,179.90000000
493,0,-0.11400000,0.06600000,-0.98900000,-0.20000000,0.04000000,-0.19000000,-0.01658015,-0.07337426,-0.11000163,175.81000000,6.89000000,179.90000000
494,0,-0.11800000,0.07800000,-0.98500000,0.00000000,0.09000000,0.22000000,-0.01658015,-0.07325634,-0.10971339,175.81000000,6.89000000,179.90000000
495,0,-0.11600000,0.06900000,-0.99000000,-0.17000000,0.16000000,0.08000000,-0.02592293,-0.06446314,-0.10531679,175.81000000,6.89000000,179.90000000
496,0,-0.12000000,0.07200000,-0.99400000,-0.15000000,-0.15000000,-0.12000000,-0.02612861,-0.06466882,-0.10548134,175.81000000,6.89000000,179.90000000
497,0,-0.11300000,0.07100000,-0.99000000,0.04000000,0.10000000,0.02000000,-0.02606705,-0.06451492,-0.10545056,175.81000000,6.89000000,179.90000000
498,0,-0.11500000,0.07100000,-0.98900000,0.03000000,-0.06000000,0.04000000,-0.02602528,-0.06459846,-0.10539486,175.81000000,6.88000000,179.90000000
499,0,-0.11300000,0.07400000,-0.99100000,0.12000000,0.10000000,-0.09000000,-0.02586058,-0.06446122,-0.10551838,175.81000000,6.88000000,179.90000000
500,0,-0.11500000,0.07000000,-0.99200000,-0.06000000,-0.06000000,0.12000000,-0.02594269,-0.06454332,-0.10535417,175.81000000,6.88000000,179.90000000
501,0,-0.11800000,0.06800000,-0.99100000,0.07000000,-0.11000000,-0.26000000,-0.02219209,-0.07043711,-0.11928495,175.82000000,6.88000000,179.90000000
502,0,-0.11000000,0.07400000,-0.99200000,-0.00000000,0.05000000,-0.33000000,-0.02219209,-0.07036632,-0.11975217,175.82000000,6.88000000,179.90000000
503,0,-0.11600000,0.07300000,-0.98800000,0.13000000,-0.00000000,0.01000000,-0.02201089,-0.07036632,-0.11973823,175.82000000,6.88000000,179.90000000
504,0,-0.11800000,0.07000000,-0.98900000,-0.11000000,-0.11000000,0.22000000,-0.02216280,-0.07051823,-0.11943441,175.82000000,6.88000000,179.90000000
505,0,-0.11500000,0.06800000,-0.98800000,0.10000000,-0.12000000,0.01000000,-0.02202534,-0.07068318,-0.11942066,175.82000000,6.88000000,179.90000000
506,0,-0.11700000,0.07300000,-0.98800000,0.06000000,-0.06000000,-0.02000000,-0.02194358,-0.07076494,-0.11944791,175.82000000,6.88000000,179.90000000
507,0,-0.11600000,0.07600000,-0.99200000,0.08000000,0.13000000,0.04000000,-0.01765942,-0.06380318,-0.11730583,175.82000000,6.88000000,179.90000000
508,0,-0.11400000,0.07300000,-0.99300000,-0.21000000,-0.14000000,-0.40000000,-0.01795900,-0.06400290,-0.11787646,175.82000000,6.88000000,179.90000000
509,0,-0.11700000,0.06800000,-0.99000000,-0.08000000,-0.17000000,-0.04000000,-0.01807142,-0.06424181,-0.11793267,175.82000000,6.87000000,179.90000000
510,0,-0.11600000,0.08000000,-0.98300000,0.07000000,0.23000000,0.09000000,-0.01797577,-0.06392752,-0.11780969,175.82000000,6.87000000,179.90000000
511,0,-0.11900000,0.07400000,-0.98900000,0.01000000,0.27000000,-0.02000000,-0.01796191,-0.06355323,-0.11783741,175.82000000,6.87000000,179.90000000
512,0,-0.11100000,0.07000000,-0.98800000,-0.00000000,0.07000000,-0.11000000,-0.01796191,-0.06345240,-0.11799586,175.82000000,6.87000000,179.91000000
513,0,-0.11600000,0.07600000,-0.98600000,-0.18000000,0.15000000,0.04000000,-0.02780525,-0.05524962,-0.11580845,175.82000000,6.87000000,179.91000000
514,0,-0.11700000,0.06900000,-0.98700000,-0.09000000,-0.04000000,-0.20000000,-0.02793765,-0.05530846,-0.11610268,175.82000000,6.87000000,179.91000000
515,0,-0.11600000,0.07100000,-0.99300000,-0.04000000,-0.16000000,0.12000000,-0.02799367,-0.05553255,-0.11593461,175.82000000,6.86000000,179.91000000
516,0,-0.11900000,0.07200000,-0.99100000,0.25000000,0.16000000,-0.27000000,-0.02764550,-0.05530972,-0.11631064,175.82000000,6.86000000,179.91000000
517,0,-0.11400000,0.06700000,-0.98700000,-0.09000000,0.22000000,-0.28000000,-0.02777060,-0.05500390,-0.11669986,175.82000000,6.86000000,179.91000000
518,0,-0.12000000,0.06700000,-0.99200000,0.17000000,0.14000000,-0.26000000,-0.02752708,-0.05480335,-0.11707232,175.82000000,6.86000000,179.91000000
519,0,-0.11400000,0.07200000,-0.99500000,-0.04000000,-0.04000000,0.27000000,-0.02966283,-0.05693911,-0.10265595,175.82000000,6.86000000,179.91000000
520,0,-0.11900000,0.07400000,-0.99300000,0.08000000,-0.22000000,0.05000000,-0.02955079,-0.05724723,-0.10258592,175.82000000,6.86000000,179.91000000
521,0,-0.11800000,0.06800000,-0.99100000,0.06000000,-0.05000000,0.02000000,-0.02947120,-0.05731355,-0.10255940,175.82000000,6.86000000,179.91000000
522,0,-0.11500000,0.07000000,-0.98900000,0.01000000,0.01000000,0.16000000,-0.02945807,-0.05730042,-0.10234930,175.83000000,6.86000000,179.91000000
523,0,-0.11900000,0.07100000,-0.99100000,0.25000000,-0.18000000,0.33000000,-0.02912706,-0.05753875,-0.10191237,175.82000000,6.86000000,179.91000000
524,0,-0.12200000,0.07200000,-0.98900000,-0.24000000,-0.19000000,0.04000000,-0.02947785,-0.05781646,-0.10185391,175.82000000,6.86000000,179.91000000
525,0,-0.11700000,0.07400000,-0.98900000,-0.08000000,-0.04000000,-0.10000000,-0.03377950,-0.05996728,-0.10723097,175.82000000,6.86000000,179.91000000
526,0,-0.11700000,0.07200000,-0.98800000,-0.00000000,-0.28000000,-0.04000000,-0.03377950,-0.06037179,-0.10728876,175.82000000,6.86000000,179.91000000
527,0,-0.11600000,0.07200000,-0.98700000,0.22000000,0.03000000,0.01000000,-0.03348212,-0.06033124,-0.10727524,175.83000000,6.86000000,179.91000000
528,0,-0.11400000,0.07200000,-0.98900000,0.03000000,-0.22000000,0.09000000,-0.03344398,-0.06061099,-0.10716080,175.83000000,6.86000000,179.91000000
529,0,-0.11500000,0.07000000,-0.99200000,0.20000000,-0.06000000,-0.23000000,-0.03319476,-0.06068576,-0.10744740,175.83000000,6.85000000,179.91000000
530,0,-0.11500000,0.07900000,-0.99400000,0.07000000,0.01000000,0.06000000,-0.03310250,-0.06067258,-0.10736831,175.83000000,6.85000000,179.91000000
531,0,-0.11700000,0.07400000,-0.98900000,0.16000000,-0.01000000,-0.12000000,-0.02435031,-0.06121959,-0.11393245,175.83000000,6.85000000,179.91000000
532,0,-0.11400000,0.07300000,-0.98900000,0.17000000,0.12000000,0.21000000,-0.02412846,-0.06106299,-0.11365841,175.83000000,6.85000000,179.91000000
533,0,-0.11300000,0.07800000,-0.99000000,-0.03000000,-0.10000000,-0.20000000,-0.02416923,-0.06119888,-0.11393018,175.83000000,6.85000000,179.91000000
534,0,-0.11900000,0.07000000,-0.98900000,-0.14000000,-0.05000000,-0.26000000,-0.02434615,-0.06126206,-0.11425875,175.83000000,6.85000000,179.91000000
535,0,-0.11500000,0.07200000,-0.98800000,-0.08000000,-0.23000000,-0.02000000,-0.02444604,-0.06154926,-0.11428372,175.83000000,6.85000000,179.91000000
536,0,-0.11600000,0.07400000,-0.99100000,-0.16000000,-0.04000000,-0.05000000,-0.02464507,-0.06159902,-0.11434592,175.83000000,6.85000000,179.91000000
537,0,-0.11400000,0.07500000,-0.99000000,-0.20000000,0.18000000,0.12000000,-0.03548398,-0.05184400,-0.10784257,175.83000000,6.85000000,179.91000000
538,0,-0.11800000,0.07000000,-0.98800000,0.06000000,-0.04000000,0.11000000,-0.03539873,-0.05190083,-0.10768628,175.82000000,6.85000000,179.91000000
539,0,-0.11600000,0.07100000,-0.99600000,-0.08000000,0.03000000,-0.11000000,-0.03550990,-0.05185915,-0.10783914,175.82000000,6.84000000,179.91000000
540,0,-0.12100000,0.07400000,-0.99100000,0.05000000,0.05000000,-0.05000000,-0.03544118,-0.05179043,-0.10790785,175.82000000,6.84000000,179.91000000
541,0,-0.11600000,0.07500000,-0.99000000,0.10000000,-0.13000000,0.19000000,-0.03530480,-0.05196773,-0.10764872,175.82000000,6.84000000,179.91000000
542,0,-0.11300000,0.07000000,-0.98900000,0.10000000,0.16000000,-0.03000000,-0.03516305,-0.05174093,-0.10769125,175.82000000,6.84000000,179.91000000
543,0,-0.11300000,0.07200000,-0.98900000,-0.39000000,0.05000000,0.10000000,-0.05609585,-0.04905724,-0.10232386,175.83000000,6.84000000,179.91000000
544,0,-0.11800000,0.06700000,-0.98800000,0.06000000,-0.27000000,-0.15000000,-0.05600865,-0.04944962,-0.10254185,175.83000000,6.84000000,179.91000000
545,0,-0.11500000,0.07700000,-0.99200000,-0.13000000,-0.01000000,0.38000000,-0.05618974,-0.04946355,-0.10201253,175.83000000,6.84000000,179.91000000
546,0,-0.11500000,0.06800000,-0.99100000,0.11000000,-0.11000000,0.07000000,-0.05603898,-0.04961431,-0.10191660,175.83000000,6.84000000,179.91000000
547,0,-0.11700000,0.06900000,-0.99000000,-0.20000000,0.10000000,0.04000000,-0.05631466,-0.04947647,-0.10186146,175.83000000,6.84000000,179.91000000
548,0,-0.11200000,0.07600000,-0.99000000,-0.22000000,-0.01000000,0.08000000,-0.05664146,-0.04949132,-0.10174262,175.83000000,6.84000000,179.91000000
549,0,-0.11400000,0.06800000,-0.99000000,0.04000000,0.20000000,0.17000000,-0.05446223,-0.03859519,-0.09248091,175.82000000,6.83000000,179.91000000
550,0,-0.11700000,0.06900000,-0.98900000,0.23000000,-0.19000000,0.05000000,-0.05413505,-0.03886547,-0.09240979,175.83000000,6.83000000,179.91000000
551,0,-0.11600000,0.06900000,-0.99000000,-0.20000000,-0.01000000,0.06000000,-0.05440019,-0.03887872,-0.09233024,175.83000000,6.83000000,179.91000000
552,0,-0.11700000,0.06900000,-0.99100000,0.05000000,0.27000000,-0.02000000,-0.05433161,-0.03850836,-0.09235768,175.83000000,6.83000000,179.91000000
553,0,-0.11600000,0.07200000,-0.98800000,-0.07000000,-0.05000000,0.06000000,-0.05442548,-0.03857541,-0.09227722,175.83000000,6.83000000,179.91000000
554,0,-0.11700000,0.07300000,-0.99300000,-0.17000000,0.09000000,0.09000000,-0.05465028,-0.03845639,-0.09215821,175.83000000,6.83000000,179.91000000
555,0,-0.12100000,0.07300000,-0.99100000,-0.15000000,-0.25000000,0.10000000,-0.06274749,-0.05195175,-0.08676007,175.83000000,6.83000000,179.91000000
556,0,-0.11600000,0.07100000,-0.98600000,-0.04000000,0.01000000,0.09000000,-0.06280366,-0.05193770,-0.08663369,175.83000000,6.83000000,179.91000000
557,0,-0.11600000,0.07300000,-0.98900000,0.04000000,-0.19000000,0.07000000,-0.06275327,-0.05217704,-0.08654552,175.83000000,6.83000000,179.91000000
558,0,-0.11600000,0.07000000,-0.99000000,-0.03000000,-0.05000000,0.09000000,-0.06279263,-0.05224263,-0.08642745,175.83000000,6.83000000,179.91000000
559,0,-0.11800000,0.07500000,-0.99400000,-0.02000000,-0.07000000,0.16000000,-0.06281760,-0.05233004,-0.08622765,175.83000000,6.83000000,179.91000000
560,0,-0.12000000,0.07100000,-0.99100000,0.09000000,0.06000000,0.02000000,-0.06270168,-0.05225276,-0.08620189,175.83000000,6.83000000,179.91000000
561,0,-0.11300000,0.07100000,-0.99300000,0.32000000,0.23000000,-0.14000000,-0.04548729,-0.03987992,-0.09373319,175.83000000,6.83000000,179.91000000
562,0,-0.11700000,0.07100000,-0.98900000,-0.06000000,-0.19000000,-0.28000000,-0.04556646,-0.04013063,-0.09410265,175.83000000,6.83000000,179.91000000
563,0,-0.11900000,0.06800000,-0.99200000,-0.12000000,0.16000000,0.21000000,-0.04571785,-0.03992877,-0.09383772,175.83000000,6.83000000,179.91000000
564,0,-0.11500000,0.07300000,-0.98800000,-0.18000000,-0.15000000,0.09000000,-0.04594665,-0.04011944,-0.09372332,175.83000000,6.83000000,179.91000000
565,0,-0.11900000,0.07000000,-0.99000000,0.15000000,-0.30000000,0.10000000,-0.04575995,-0.04049284,-0.09359886,175.83000000,6.83000000,179.91000000
566,0,-0.11600000,0.07200000,-0.98800000,-0.00000000,-0.00000000,0.07000000,-0.04575995,-0.04049284,-0.09350891,175.83000000,6.83000000,179.91000000
567,0,-0.11700000,0.06900000,-0.98900000,-0.01000000,0.06000000,0.01000000,-0.04631058,-0.03718905,-0.09295828,175.83000000,6.82000000,179.91000000
568,0,-0.11800000,0.07600000,-0.99300000,0.18000000,0.12000000,-0.20000000,-0.04605226,-0.03701683,-0.09324531,175.83000000,6.82000000,179.91000000
569,0,-0.11500000,0.07500000,-0.99600000,-0.18000000,-0.01000000,0.10000000,-0.04630749,-0.03703101,-0.09310351,175.83000000,6.82000000,179.91000000
570,0,-0.11900000,0.07000000,-0.98900000,-0.06000000,-0.19000000,0.05000000,-0.04639035,-0.03729341,-0.09303446,175.83000000,6.82000000,179.91000000
571,0,-0.12000000,0.07400000,-0.98900000,0.07000000,-0.04000000,-0.12000000,-0.04629402,-0.03734846,-0.09319961,175.83000000,6.82000000,179.91000000
572,0,-0.11400000,0.07400000,-0.99400000,-0.11000000,0.14000000,0.07000000,-0.04645081,-0.03714890,-0.09309983,175.83000000,6.82000000,179.91000000
573,0,-0.11500000,0.07300000,-0.98600000,0.26000000,-0.02000000,-0.33000000,-0.03249846,-0.03822216,-0.11080858,175.83000000,6.82000000,179.91000000
574,0,-0.11900000,0.07700000,-0.98800000,-0.02000000,-0.01000000,-0.10000000,-0.03252855,-0.03823721,-0.11095906,175.83000000,6.82000000,179.91000000
575,0,-0.11700000,0.06900000,-0.98900000,-0.11000000,0.13000000,-0.08000000,-0.03268138,-0.03805659,-0.11107021,175.83000000,6.82000000,179.91000000
576,0,-0.11900000,0.07600000,-0.99000000,-0.16000000,0.03000000,-0.10000000,-0.03290811,-0.03801408,-0.11121191,175.83000000,6.82000000,179.91000000
577,0,-0.11600000,0.06900000,-0.99500000,0.10000000,-0.02000000,-0.02000000,-0.03276929,-0.03804184,-0.11123968,175.83000000,6.81000000,179.91000000
578,0,-0.11600000,0.07500000,-0.99200000,0.11000000,0.08000000,0.05000000,-0.03260720,-0.03792396,-0.11116600,175.83000000,6.81000000,179.91000000
579,0,-0.11400000,0.07000000,-0.98900000,0.14000000,-0.10000000,0.29000000,-0.02514140,-0.04325668,-0.09570111,175.83000000,6.81000000,179.91000000
580,0,-0.11200000,0.07100000,-0.98800000,0.17000000,-0.10000000,0.01000000,-0.02490999,-0.04339280,-0.09568750,175.83000000,6.81000000,179.91000000
581,0,-0.11600000,0.07200000,-0.99300000,-0.21000000,0.10000000,-0.29000000,-0.02518433,-0.04326216,-0.09606636,175.83000000,6.81000000,179.91000000
582,0,-0.11600000,0.07000000,-0.99100000,0.11000000,-0.04000000,0.21000000,-0.02503769,-0.04331549,-0.09578641,175.83000000,6.81000000,179.91000000
583,0,-0.11500000,0.07600000,-0.99000000,-0.15000000,-0.03000000,-0.21000000,-0.02523669,-0.04335529,-0.09606501,175.83000000,6.81000000,179.91000000
584,0,-0.12000000,0.06700000,-0.99000000,0.13000000,0.24000000,0.12000000,-0.02506373,-0.04303597,-0.09590535,175.83000000,6.81000000,179.91000000
585,0,-0.12100000,0.07300000,-0.98600000,-0.21000000,0.09000000,-0.20000000,-0.03658192,-0.03809961,-0.10687506,175.83000000,6.81000000,179.91000000
586,0,-0.11600000,0.07500000,-0.99100000,0.02000000,0.13000000,-0.21000000,-0.03655507,-0.03792506,-0.10715701,175.83000000,6.81000000,179.91000000
587,0,-0.11700000,0.07100000,-0.99200000,-0.20000000,0.06000000,0.01000000,-0.03682416,-0.03784433,-0.10714355,175.83000000,6.81000000,179.91000000
588,0,-0.12100000,0.07700000,-0.98900000,0.21000000,0.02000000,0.05000000,-0.03653175,-0.03781648,-0.10707393,175.83000000,6.81000000,179.91000000
589,0,-0.11200000,0.07200000,-0.99300000,-0.33000000,-0.38000000,-0.03000000,-0.03699504,-0.03834997,-0.10711605,175.83000000,6.81000000,179.91000000
590,0,-0.11000000,0.07400000,-0.99300000,0.27000000,-0.14000000,-0.08000000,-0.03661959,-0.03854465,-0.10722729,175.83000000,6.80000000,179.91000000
591,0,-0.11200000,0.07300000,-0.99300000,0.10000000,-0.22000000,0.01000000,-0.03123949,-0.05038085,-0.10668928,175.83000000,6.80000000,179.91000000
592,0,-0.11800000,0.07600000,-0.98800000,0.17000000,0.02000000,-0.17000000,-0.03098486,-0.05035089,-0.10694392,175.83000000,6.80000000,179.91000000
593,0,-0.11800000,0.07400000,-0.99400000,0.06000000,-0.07000000,0.13000000,-0.03090134,-0.05044833,-0.10676296,175.83000000,6.80000000,179.91000000
594,0,-0.11300000,0.07400000,-0.98600000,0.04000000,0.06000000,0.16000000,-0.03084579,-0.05036501,-0.10654078,175.83000000,6.80000000,179.91000000
595,0,-0.11600000,0.06700000,-0.98800000,-0.17000000,-0.09000000,-0.10000000,-0.03107712,-0.05048748,-0.10667685,175.83000000,6.80000000,179.91000000
596,0,-0.11700000,0.07200000,-0.98900000,0.20000000,0.18000000,0.10000000,-0.03079944,-0.05023757,-0.10653801,175.83000000,6.80000000,179.91000000
597,0,-0.11400000,0.06600000,-0.98900000,-0.11000000,-0.13000000,-0.21000000,-0.03669362,-0.05720342,-0.11779054,175.83000000,6.80000000,179.91000000
598,0,-0.12000000,0.07000000,-0.99100000,-0.02000000,-0.05000000,0.11000000,-0.03672048,-0.05727055,-0.11764285,175.83000000,6.80000000,179.91000000
599,0,-0.11700000,0.07200000,-0.99000000,0.05000000,0.04000000,0.07000000,-0.03665693,-0.05721972,-0.11755389,175.83000000,6.80000000,179.91000000
600,0,-0.11600000,0.07600000,-0.99000000,-0.11000000,-0.05000000,0.12000000,-0.03679605,-0.05728295,-0.11740213,175.83000000,6.80000000,179.91000000
601,0,-0.11600000,0.07200000,-0.99200000,0.12000000,0.01000000,0.15000000,-0.03664703,-0.05727053,-0.11721586,175.83000000,6.80000000,179.91000000
602,0,-0.11800000,0.07300000,-0.98800000,0.07000000,0.04000000,-0.22000000,-0.03655592,-0.05721847,-0.11750222,175.83000000,6.79000000,179.91000000
603,0,-0.12100000,0.07500000,-0.99000000,0.04000000,0.17000000,-0.20000000,-0.03436020,-0.04788668,-0.12848080,175.82000000,6.79000000,179.91000000
604,0,-0.11800000,0.07300000,-0.99200000,0.15000000,-0.11000000,-0.33000000,-0.03416460,-0.04803012,-0.12891112,175.82000000,6.79000000,179.91000000
605,0,-0.11900000,0.06900000,-0.99100000,-0.08000000,-0.04000000,0.19000000,-0.03426583,-0.04808074,-0.12867070,175.83000000,6.79000000,179.91000000
606,0,-0.11600000,0.07500000,-0.99100000,-0.13000000,0.02000000,-0.07000000,-0.03442748,-0.04805587,-0.12875774,175.83000000,6.79000000,179.91000000
607,0,-0.11100000,0.07600000,-0.99000000,0.11000000,-0.02000000,-0.24000000,-0.03429191,-0.04808052,-0.12905354,175.83000000,6.79000000,179.91000000
608,0,-0.11300000,0.07700000,-0.99100000,-0.11000000,-0.10000000,-0.11000000,-0.03442659,-0.04820296,-0.12918822,175.82000000,6.79000000,179.91000000
609,0,-0.11700000,0.07300000,-0.99000000,-0.12000000,0.01000000,-0.15000000,-0.04131320,-0.04762907,-0.13779648,175.82000000,6.78000000,179.91000000
610,0,-0.11200000,0.07700000,-0.99000000,-0.07000000,0.12000000,0.06000000,-0.04141511,-0.04745436,-0.13770913,175.82000000,6.78000000,179.91000000
611,0,-0.11500000,0.07200000,-0.99000000,-0.20000000,0.18000000,0.13000000,-0.04168240,-0.04721381,-0.13753539,175.82000000,6.78000000,179.91000000
612,0,-0.11200000,0.07100000,-0.99200000,0.09000000,-0.09000000,0.13000000,-0.04155974,-0.04733647,-0.13735821,175.82000000,6.78000000,179.91000000
613,0,-0.11800000,0.07300000,-0.99100000,0.12000000,0.18000000,-0.07000000,-0.04140177,-0.04709951,-0.13745036,175.82000000,6.78000000,179.91000000
614,0,-0.12000000,0.07200000,-0.99200000,0.39000000,-0.05000000,0.09000000,-0.04087089,-0.04716757,-0.13732785,175.83000000,6.78000000,179.91000000
615,0,-0.11800000,0.07400000,-0.99000000,-0.38000000,-0.05000000,-0.18000000,-0.04141099,-0.04723864,-0.13758369,175.83000000,6.78000000,179.91000000
616,0,-0.11900000,0.07100000,-0.99600000,0.10000000,0.18000000,0.23000000,-0.03566917,-0.03690336,-0.12437750,175.83000000,6.78000000,179.91000000
617,0,-0.11100000,0.07200000,-0.98800000,-0.08000000,-0.04000000,-0.33000000,-0.03576712,-0.03695234,-0.12478154,175.83000000,6.78000000,179.91000000
618,0,-0.11300000,0.07100000,-0.99300000,-0.03000000,0.21000000,-0.28000000,-0.03582158,-0.03657110,-0.12528986,175.83000000,6.78000000,179.91000000
619,0,-0.11700000,0.07600000,-0.98900000,0.01000000,-0.01000000,-0.02000000,-0.03580588,-0.03658679,-0.12532125,175.83000000,6.78000000,179.91000000
620,0,-0.11300000,0.06900000,-0.99000000,0.05000000,0.14000000,0.23000000,-0.03559735,-0.03600289,-0.12436197,175.83000000,6.78000000,179.91000000
621,0,-0.11400000,0.07200000,-0.99300000,-0.34000000,-0.13000000,-0.15000000,-0.03597124,-0.03614585,-0.12452693,175.83000000,6.78000000,179.91000000
622,0,-0.11500000,0.07200000,-0.98800000,0.06000000,-0.10000000,-0.17000000,-0.03311197,-0.04091130,-0.13262819,175.83000000,6.78000000,179.91000000
623,0,-0.12200000,0.07100000,-0.99100000,0.03000000,-0.11000000,-0.10000000,-0.03307733,-0.04103832,-0.13274367,175.83000000,6.78000000,179.91000000
624,0,-0.11500000,0.07700000,-0.99500000,0.16000000,0.06000000,-0.09000000,-0.03271087,-0.04090090,-0.13294980,175.83000000,6.78000000,179.91000000
625,0,-0.11600000,0.07200000,-0.99400000,0.10000000,0.09000000,0.08000000,-0.03256464,-0.04076929,-0.13283281,175.83000000,6.78000000,179.91000000
626,0,-0.11400000,0.07100000,-0.99000000,0.16000000,-0.07000000,-0.09000000,-0.03230091,-0.04088467,-0.13298116,175.83000000,6.77000000,179.92000000
627,0,-0.11600000,0.07000000,-0.98900000,-0.04000000,0.27000000,-0.09000000,-0.03234383,-0.04059496,-0.13307773,175.83000000,6.77000000,179.92000000
628,0,-0.11400000,0.07000000,-0.99100000,-0.05000000,0.24000000,0.03000000,-0.03498766,-0.02790459,-0.13149143,175.83000000,6.77000000,179.92000000
629,0,-0.11900000,0.06900000,-0.99200000,-0.04000000,0.04000000,0.31000000,-0.03503236,-0.02785989,-0.13114506,175.83000000,6.77000000,179.91000000
630,0,-0.11500000,0.07600000,-0.99000000,0.28000000,0.15000000,0.03000000,-0.03474040,-0.02770349,-0.13111378,175.83000000,6.77000000,179.91000000
631,0,-0.11600000,0.07100000,-0.99100000,-0.04000000,-0.23000000,0.03000000,-0.03478195,-0.02794243,-0.13108261,175.83000000,6.77000000,179.91000000
632,0,-0.11400000,0.07300000,-0.99300000,-0.07000000,0.04000000,-0.06000000,-0.03485279,-0.02790195,-0.13114333,175.83000000,6.77000000,179.91000000
633,0,-0.11800000,0.07000000,-0.98900000,-0.01000000,0.01000000,-0.06000000,-0.03486301,-0.02789173,-0.13120466,175.83000000,6.77000000,179.91000000
634,0,-0.11700000,0.07500000,-0.99000000,-0.08000000,-0.11000000,0.17000000,-0.03928324,-0.03396955,-0.12181167,175.83000000,6.77000000,179.91000000
635,0,-0.11800000,0.06900000,-0.98800000,-0.12000000,-0.18000000,0.09000000,-0.03940817,-0.03415694,-0.12171797,175.83000000,6.77000000,179.91000000
636,0,-0.11700000,0.07300000,-0.99400000,0.13000000,0.05000000,-0.05000000,-0.03927888,-0.03410721,-0.12176770,175.83000000,6.77000000,179.91000000
637,0,-0.11500000,0.07500000,-0.99300000,-0.05000000,-0.02000000,-0.24000000,-0.03933305,-0.03412888,-0.12202774,175.83000000,6.77000000,179.91000000
638,0,-0.11600000,0.07100000,-0.98800000,-0.07000000,-0.02000000,-0.21000000,-0.03940407,-0.03414917,-0.12224080,175.83000000,6.77000000,179.91000000
639,0,-0.11700000,0.07200000,-0.99300000,0.12000000,0.10000000,0.07000000,-0.03928438,-0.03404943,-0.12217098,175.83000000,6.76000000,179.91000000
640,0,-0.11500000,0.07100000,-0.99200000,0.31000000,-0.14000000,-0.09000000,-0.02180129,-0.04194502,-0.12724671,175.84000000,6.76000000,179.91000000
641,0,-0.11500000,0.07000000,-0.99100000,0.11000000,0.04000000,-0.22000000,-0.02168573,-0.04190300,-0.12747784,175.83000000,6.76000000,179.91000000
642,0,-0.11800000,0.07000000,-0.99200000,0.07000000,0.11000000,-0.02000000,-0.02161426,-0.04179068,-0.12749826,175.84000000,6.76000000,179.92000000
643,0,-0.11000000,0.06700000,-0.99100000,-0.23000000,0.03000000,0.32000000,-0.02184547,-0.04176053,-0.12717657,175.83000000,6.76000000,179.91000000
644,0,-0.11000000,0.07100000,-0.99100000,0.07000000,-0.02000000,-0.23000000,-0.02177547,-0.04178053,-0.12740658,175.83000000,6.76000000,179.92000000
645,0,-0.11600000,0.07200000,-0.98800000,0.08000000,0.08000000,-0.03000000,-0.02169535,-0.04170041,-0.12743662,175.84000000,6.76000000,179.92000000
646,0,-0.11500000,0.07500000,-0.99000000,-0.14000000,-0.00000000,0.12000000,-0.02946444,-0.04170041,-0.12077741,175.84000000,6.76000000,179.92000000
647,0,-0.11500000,0.07300000,-0.98600000,0.05000000,-0.01000000,0.06000000,-0.02941198,-0.04171090,-0.12071446,175.84000000,6.76000000,179.92000000
648,0,-0.10800000,0.07500000,-0.99200000,-0.16000000,0.32000000,-0.05000000,-0.02957488,-0.04138509,-0.12076537,175.84000000,6.76000000,179.92000000
649,0,-0.11600000,0.07200000,-0.98700000,-0.00000000,0.11000000,0.03000000,-0.02957488,-0.04127349,-0.12073493,175.84000000,6.76000000,179.92000000
650,0,-0.11400000,0.07500000,-0.99500000,0.06000000,0.04000000,0.06000000,-0.02951395,-0.04123287,-0.12067400,175.84000000,6.76000000,179.92000000
651,0,-0.11500000,0.07400000,-0.98600000,0.14000000,0.08000000,0.00000000,-0.02937271,-0.04115216,-0.12067400,175.83000000,6.76000000,179.92000000
652,0,-0.11900000,0.07000000,-0.98900000,0.10000000,-0.07000000,0.09000000,-0.02381440,-0.04504298,-0.11567152,175.84000000,6.76000000,179.92000000
653,0,-0.11500000,0.07100000,-0.98900000,-0.19000000,-0.08000000,-0.00000000,-0.02401759,-0.04512853,-0.11567152,175.83000000,6.76000000,179.92000000
654,0,-0.11300000,0.07200000,-0.99200000,0.21000000,0.02000000,0.07000000,-0.02375862,-0.04510387,-0.11558519,175.84000000,6.76000000,179.92000000
655,0,-0.12000000,0.07700000,-0.98800000,0.01000000,-0.21000000,-0.06000000,-0.02374845,-0.04531743,-0.11564621,175.84000000,6.76000000,179.92000000
656,0,-0.11600000,0.06900000,-0.99200000,0.13000000,-0.09000000,-0.05000000,-0.02361900,-0.04540704,-0.11569600,175.84000000,6.76000000,179.92000000
657,0,-0.11400000,0.07600000,-0.99200000,0.10000000,-0.08000000,-0.02000000,-0.02351921,-0.04548688,-0.11571596,175.83000000,6.76000000,179.92000000
658,0,-0.11600000,0.07400000,-0.98900000,0.13000000,-0.11000000,0.07000000,-0.01622550,-0.05165848,-0.11178857,175.84000000,6.76000000,179.92000000
659,0,-0.11300000,0.07500000,-0.99200000,0.22000000,0.03000000,-0.10000000,-0.01598934,-0.05162627,-0.11189592,175.84000000,6.76000000,179.92000000
660,0,-0.11800000,0.07900000,-0.98700000,-0.01000000,0.27000000,0.19000000,-0.01599946,-0.05135311,-0.11170369,175.84000000,6.76000000,179.92000000
661,0,-0.12000000,0.07400000,-0.99300000,-0.05000000,-0.25000000,-0.03000000,-0.01604971,-0.05160437,-0.11173385,175.84000000,6.76000000,179.92000000
662,0,-0.11400000,0.07500000,-0.99200000,-0.03000000,-0.14000000,0.17000000,-0.01607972,-0.05174444,-0.11156376,175.84000000,6.76000000,179.92000000
663,0,-0.11800000,0.07300000,-0.99200000,0.09000000,-0.30000000,-0.07000000,-0.01598875,-0.05204767,-0.11163451,175.83000000,6.76000000,179.92000000
664,0,-0.10900000,0.07000000,-0.98800000,0.00000000,0.06000000,-0.02000000,-0.01598875,-0.04871908,-0.11274404,175.83000000,6.76000000,179.92000000
665,0,-0.11700000,0.07000000,-0.99100000,0.11000000,-0.09000000,0.06000000,-0.01587170,-0.04881485,-0.11268019,175.83000000,6.76000000,179.92000000
666,0,-0.11700000,0.07600000,-0.98900000,0.14000000,0.16000000,0.05000000,-0.01573076,-0.04865378,-0.11262986,175.83000000,6.76000000,179.92000000
667,0,-0.11400000,0.07500000,-0.99200000,-0.26000000,0.12000000,-0.13000000,-0.01598903,-0.04853458,-0.11275899,175.83000000,6.76000000,179.92000000
668,0,-0.11700000,0.07800000,-0.99300000,-0.02000000,-0.13000000,-0.15000000,-0.01600883,-0.04866325,-0.11290746,175.83000000,6.76000000,179.92000000
669,0,-0.11600000,0.07200000,-0.98700000,-0.15000000,-0.22000000,-0.05000000,-0.01616069,-0.04888598,-0.11295808,175.83000000,6.76000000,179.92000000
670,0,-0.11300000,0.07100000,-0.99000000,0.15000000,-0.11000000,-0.09000000,-0.00780835,-0.05501103,-0.11796949,175.83000000,6.76000000,179.92000000
671,0,-0.11700000,0.07300000,-0.99000000,-0.12000000,-0.25000000,0.13000000,-0.00793662,-0.05527827,-0.11783053,175.83000000,6.76000000,179.92000000
672,0,-0.11100000,0.07300000,-0.98900000,-0.09000000,-0.04000000,0.13000000,-0.00802742,-0.05531862,-0.11769938,175.83000000,6.76000000,179.92000000
673,0,-0.11800000,0.07300000,-0.99100000,0.06000000,0.05000000,0.12000000,-0.00796761,-0.05526879,-0.11757977,175.83000000,6.76000000,179.92000000
674,0,-0.11800000,0.07500000,-0.99100000,0.01000000,-0.08000000,-0.08000000,-0.00795759,-0.05534902,-0.11766000,175.83000000,6.76000000,179.92000000
675,0,-0.11300000,0.07600000,-0.99400000,-0.07000000,-0.11000000,-0.06000000,-0.00802892,-0.05546112,-0.11772115,175.83000000,6.76000000,179.92000000
676,0,-0.11600000,0.07400000,-0.99200000,-0.20000000,-0.23000000,-0.36000000,-0.01928497,-0.06840557,-0.13798204,175.83000000,6.76000000,179.92000000
677,0,-0.11600000,0.07300000,-0.98600000,-0.04000000,-0.20000000,-0.08000000,-0.01932749,-0.06861817,-0.13806707,175.83000000,6.76000000,179.92000000
678,0,-0.11800000,0.07600000,-0.98800000,-0.11000000,0.00000000,0.09000000,-0.01943933,-0.06861817,-0.13797557,175.83000000,6.76000000,179.92000000
679,0,-0.11400000,0.06700000,-0.98800000,0.12000000,-0.08000000,0.06000000,-0.01931789,-0.06869912,-0.13791485,175.83000000,6.76000000,179.92000000
680,0,-0.11400000,0.07700000,-0.99300000,0.10000000,-0.06000000,-0.05000000,-0.01921606,-0.06876023,-0.13796577,175.83000000,6.76000000,179.92000000
681,0,-0.11800000,0.07700000,-0.99200000,0.08000000,0.08000000,0.15000000,-0.01913539,-0.06867956,-0.13781452,175.83000000,6.76000000,179.92000000
682,0,-0.11600000,0.07300000,-0.99100000,0.07000000,-0.07000000,0.02000000,-0.01525026,-0.07256468,-0.13670448,175.83000000,6.76000000,179.92000000
683,0,-0.11700000,0.07300000,-0.99000000,0.17000000,0.12000000,-0.04000000,-0.01506992,-0.07243738,-0.13674691,175.83000000,6.76000000,179.92000000
684,0,-0.11600000,0.07100000,-0.99300000,-0.17000000,-0.12000000,-0.03000000,-0.01524260,-0.07255928,-0.13677739,175.83000000,6.76000000,179.92000000
685,0,-0.11800000,0.07000000,-0.99100000,-0.21000000,-0.10000000,0.25000000,-0.01545421,-0.07266004,-0.13652547,175.83000000,6.76000000,179.92000000
686,0,-0.11500000,0.07600000,-0.98900000,-0.12000000,0.06000000,-0.11000000,-0.01557553,-0.07259938,-0.13663668,175.83000000,6.75000000,179.92000000
687,0,-0.11500000,0.07700000,-0.99200000,-0.21000000,0.17000000,0.08000000,-0.01578679,-0.07242836,-0.13655620,175.83000000,6.75000000,179.92000000
688,0,-0.11300000,0.06500000,-0.99000000,0.05000000,0.08000000,0.05000000,-0.01300750,-0.06798151,-0.13377691,175.83000000,6.75000000,179.92000000
689,0,-0.12000000,0.07800000,-0.99400000,-0.16000000,0.02000000,0.01000000,-0.01317456,-0.06796062,-0.13376647,175.83000000,6.75000000,179.92000000
690,0,-0.11600000,0.07300000,-0.99300000,0.03000000,-0.01000000,-0.12000000,-0.01314463,-0.06797060,-0.13388619,175.83000000,6.75000000,179.92000000
691,0,-0.11400000,0.07300000,-0.99200000,-0.11000000,-0.21000000,-0.22000000,-0.01325492,-0.06818116,-0.13410677,175.83000000,6.75000000,179.92000000
692,0,-0.11700000,0.07200000,-0.98900000,0.01000000,0.02000000,-0.23000000,-0.01324477,-0.06816086,-0.13434024,175.83000000,6.75000000,179.92000000
693,0,-0.11500000,0.06800000,-0.99200000,-0.10000000,0.05000000,0.15000000,-0.01334613,-0.06811017,-0.13418819,175.83000000,6.75000000,179.92000000
694,0,-0.11800000,0.07400000,-0.98800000,-0.03000000,-0.21000000,-0.08000000,-0.01503608,-0.07993979,-0.13869471,175.83000000,6.75000000,179.92000000
695,0,-0.11700000,0.06800000,-0.99300000,-0.03000000,-0.27000000,-0.06000000,-0.01506763,-0.08022370,-0.13875780,175.83000000,6.75000000,179.92000000
696,0,-0.11400000,0.06700000,-0.99300000,0.00000000,0.13000000,0.08000000,-0.01506763,-0.08009289,-0.13867731,175.83000000,6.75000000,179.92000000
697,0,-0.11500000,0.07300000,-0.99300000,-0.10000000,-0.17000000,-0.03000000,-0.01516918,-0.08026553,-0.13870777,175.83000000,6.75000000,179.92000000
698,0,-0.11800000,0.07200000,-0.99500000,0.02000000,-0.11000000,0.12000000,-0.01514901,-0.08037645,-0.13858677,175.83000000,6.75000000,179.92000000
699,0,-0.12000000,0.07300000,-0.98900000,0.19000000,0.18000000,0.01000000,-0.01495611,-0.08019370,-0.13857661,175.83000000,6.75000000,179.92000000
700,0,-0.11800000,0.07000000,-0.99000000,-0.08000000,0.02000000,-0.17000000,-0.01939360,-0.07908433,-0.14800629,175.83000000,6.75000000,179.92000000
701,0,-0.11800000,0.08200000,-0.98900000,-0.13000000,0.16000000,-0.04000000,-0.01953194,-0.07891406,-0.14804885,175.83000000,6.75000000,179.92000000
702,0,-0.11600000,0.07100000,-0.99200000,-0.03000000,-0.08000000,-0.01000000,-0.01956223,-0.07899485,-0.14805895,175.83000000,6.75000000,179.92000000
703,0,-0.11900000,0.07800000,-0.99400000,-0.20000000,-0.16000000,-0.09000000,-0.01976610,-0.07915794,-0.14815069,175.83000000,6.75000000,179.92000000
704,0,-0.11400000,0.07400000,-0.99100000,0.10000000,0.15000000,0.29000000,-0.01966569,-0.07900733,-0.14785951,175.83000000,6.75000000,179.92000000
705,0,-0.11400000,0.07100000,-0.99300000,-0.14000000,-0.11000000,0.04000000,-0.01980663,-0.07911807,-0.14781924,175.83000000,6.75000000,179.92000000
706,0,-0.11800000,0.07200000,-0.99000000,-0.21000000,0.06000000,-0.05000000,-0.03150812,-0.07577478,-0.15060531,175.83000000,6.75000000,179.92000000
707,0,-0.11400000,0.07300000,-0.99300000,-0.09000000,-0.11000000,-0.01000000,-0.03160242,-0.07589003,-0.15061579,175.83000000,6.75000000,179.92000000
708,0,-0.11600000,0.07300000,-0.99400000,0.05000000,0.05000000,-0.06000000,-0.03155224,-0.07583985,-0.15067600,175.83000000,6.75000000,179.92000000
709,0,-0.11300000,0.07100000,-0.98800000,0.13000000,-0.02000000,0.13000000,-0.03141954,-0.07586027,-0.15054330,175.83000000,6.75000000,179.92000000
710,0,-0.11500000,0.07300000,-0.99600000,0.04000000,0.45000000,-0.04000000,-0.03137916,-0.07540596,-0.15058368,175.83000000,6.75000000,179.92000000
711,0,-0.12100000,0.06900000,-0.99000000,-0.09000000,0.03000000,0.22000000,-0.03146890,-0.07537605,-0.15036431,175.83000000,6.75000000,179.92000000
712,0,-0.11700000,0.07300000,-0.99700000,0.16000000,0.26000000,0.07000000,-0.02247287,-0.06075750,-0.14642855,175.83000000,6.74000000,179.92000000
713,0,-0.11600000,0.07500000,-0.99500000,-0.15000000,-0.17000000,-0.13000000,-0.02263007,-0.06093566,-0.14656478,175.83000000,6.74000000,179.92000000
714,0,-0.11600000,0.07000000,-0.99200000,0.02000000,0.06000000,0.13000000,-0.02260980,-0.06087485,-0.14643304,175.83000000,6.74000000,179.92000000
715,0,-0.11500000,0.07300000,-0.99400000,-0.07000000,0.07000000,0.06000000,-0.02268085,-0.06080380,-0.14637214,175.83000000,6.74000000,179.92000000
716,0,-0.12400000,0.07300000,-0.99500000,-0.00000000,0.05000000,0.03000000,-0.02268085,-0.06075406,-0.14634229,175.83000000,6.74000000,179.92000000
717,0,-0.11500000,0.07300000,-0.99200000,0.07000000,-0.12000000,-0.17000000,-0.02261125,-0.06087338,-0.14651133,175.83000000,6.74000000,179.92000000
718,0,-0.12100000,0.07100000,-0.99300000,0.10000000,-0.06000000,0.14000000,-0.01706200,-0.06420293,-0.13874238,175.83000000,6.74000000,179.92000000
719,0,-0.11700000,0.07900000,-0.98900000,0.11000000,-0.02000000,0.12000000,-0.01694743,-0.06422376,-0.13861739,175.83000000,6.74000000,179.92000000
720,0,-0.11500000,0.07200000,-0.99200000,0.04000000,-0.14000000,0.10000000,-0.01690714,-0.06436480,-0.13851665,175.83000000,6.74000000,179.92000000
721,0,-0.11400000,0.07700000,-0.99100000,0.04000000,-0.05000000,-0.21000000,-0.01686729,-0.06441461,-0.13872586,175.83000000,6.74000000,179.92000000
722,0,-0.11700000,0.07700000,-0.99400000,0.12000000,0.12000000,-0.12000000,-0.01674714,-0.06429446,-0.13884600,175.83000000,6.74000000,179.92000000
723,0,-0.11900000,0.07000000,-0.98900000,-0.13000000,0.11000000,0.11000000,-0.01687839,-0.06418341,-0.13873495,175.83000000,6.74000000,179.92000000
724,0,-0.11600000,0.07600000,-0.98800000,0.05000000,0.09000000,-0.24000000,-0.01408874,-0.05916205,-0.15212525,175.83000000,6.74000000,179.92000000
725,0,-0.11400000,0.07300000,-0.99200000,-0.03000000,0.33000000,-0.08000000,-0.01412059,-0.05881174,-0.15221017,175.83000000,6.74000000,179.92000000
726,0,-0.11500000,0.07500000,-0.98800000,-0.17000000,-0.07000000,0.22000000,-0.01429464,-0.05888341,-0.15198492,175.83000000,6.73000000,179.92000000
727,0,-0.12100000,0.07500000,-0.99100000,-0.01000000,-0.13000000,-0.32000000,-0.01430591,-0.05902990,-0.15234552,175.83000000,6.74000000,179.92000000
728,0,-0.11600000,0.07700000,-0.99100000,-0.20000000,0.01000000,-0.28000000,-0.01451031,-0.05901968,-0.15263167,175.83000000,6.74000000,179.92000000
729,0,-0.11600000,0.06900000,-0.99500000,-0.14000000,0.10000000,-0.12000000,-0.01468132,-0.05889753,-0.15277825,175.83000000,6.73000000,179.92000000
730,0,-0.11300000,0.07400000,-0.99300000,0.13000000,-0.04000000,0.01000000,-0.00703281,-0.06125092,-0.15218991,175.83000000,6.73000000,179.92000000
731,0,-0.11600000,0.07000000,-0.99100000,-0.07000000,-0.07000000,-0.02000000,-0.00710600,-0.06132411,-0.15221082,175.83000000,6.73000000,179.92000000
732,0,-0.11200000,0.07300000,-0.98900000,-0.03000000,-0.00000000,-0.17000000,-0.00713640,-0.06132411,-0.15238305,175.83000000,6.73000000,179.92000000
733,0,-0.11500000,0.07200000,-0.99100000,0.04000000,0.13000000,0.04000000,-0.00709603,-0.06119292,-0.15234269,175.83000000,6.73000000,179.92000000
734,0,-0.11800000,0.07300000,-0.98900000,0.13000000,0.07000000,-0.07000000,-0.00696671,-0.06112329,-0.15241232,175.83000000,6.73000000,179.92000000
735,0,-0.11900000,0.07700000,-0.98800000,0.07000000,-0.14000000,0.19000000,-0.00689659,-0.06126353,-0.15222200,175.83000000,6.73000000,179.92000000
736,0,-0.11600000,0.06900000,-0.99000000,0.12000000,-0.18000000,-0.10000000,-0.00677653,-0.06144362,-0.15232205,175.83000000,6.73000000,179.92000000
737,0,-0.11700000,0.07500000,-0.98900000,-0.01000000,-0.07000000,-0.01000000,-0.00733129,-0.06532694,-0.15287681,175.83000000,6.73000000,179.92000000
738,0,-0.11600000,0.07100000,-0.98900000,-0.08000000,0.13000000,0.08000000,-0.00741715,-0.06518742,-0.15279095,175.83000000,6.73000000,179.92000000
739,0,-0.11600000,0.07200000,-0.99200000,0.25000000,0.11000000,0.04000000,-0.00716375,-0.06507592,-0.15275041,175.83000000,6.73000000,179.92000000
740,0,-0.11600000,0.07500000,-0.98500000,0.07000000,-0.04000000,-0.10000000,-0.00709354,-0.06511604,-0.15285070,175.83000000,6.73000000,179.92000000
741,0,-0.11500000,0.07300000,-0.99000000,0.06000000,-0.18000000,-0.07000000,-0.00703055,-0.06530501,-0.15292419,175.83000000,6.73000000,179.92000000
742,0,-0.11600000,0.06900000,-0.99200000,-0.11000000,0.05000000,0.30000000,-0.00714174,-0.06525448,-0.15262096,175.83000000,6.73000000,179.92000000
743,0,-0.11900000,0.07300000,-0.98900000,-0.03000000,0.01000000,0.08000000,-0.00881064,-0.06469818,-0.14817055,175.83000000,6.73000000,179.92000000
744,0,-0.11200000,0.07300000,-0.99000000,-0.18000000,0.13000000,0.00000000,-0.00900373,-0.06455872,-0.14817055,175.83000000,6.73000000,179.92000000
745,0,-0.11400000,0.07700000,-0.99100000,0.29000000,0.08000000,-0.15000000,-0.00871165,-0.06447814,-0.14832163,175.83000000,6.73000000,179.92000000
746,0,-0.11500000,0.06900000,-0.99000000,0.20000000,-0.06000000,0.07000000,-0.00851226,-0.06453796,-0.14825185,175.83000000,6.72000000,179.92000000
747,0,-0.11300000,0.07600000,-0.98900000,0.32000000,0.02000000,0.01000000,-0.00819401,-0.06451807,-0.14824190,175.83000000,6.72000000,179.92000000
748,0,-0.11800000,0.06300000,-0.98800000,-0.09000000,-0.03000000,-0.20000000,-0.00828378,-0.06454799,-0.14844138,175.83000000,6.72000000,179.92000000
749,0,-0.11200000,0.06800000,-0.98600000,-0.29000000,0.02000000,-0.08000000,-0.02461154,-0.06342194,-0.15294559,175.83000000,6.72000000,179.92000000
750,0,-0.11500000,0.07100000,-0.99100000,-0.33000000,0.12000000,-0.11000000,-0.02496413,-0.06329372,-0.15306312,175.83000000,6.72000000,179.92000000
751,0,-0.11800000,0.07300000,-0.98800000,0.10000000,0.08000000,0.03000000,-0.02486287,-0.06321271,-0.15303274,175.83000000,6.72000000,179.92000000
752,0,-0.11800000,0.06800000,-0.99100000,0.04000000,0.23000000,0.11000000,-0.02482248,-0.06298051,-0.15292169,175.83000000,6.72000000,179.92000000
753,0,-0.12200000,0.07200000,-0.98900000,-0.30000000,0.09000000,-0.32000000,-0.02512578,-0.06288952,-0.15324521,175.83000000,6.72000000,179.92000000
754,0,-0.12000000,0.07300000,-0.99000000,0.22000000,-0.03000000,0.11000000,-0.02490127,-0.06292014,-0.15313295,175.83000000,6.72000000,179.92000000
755,0,-0.11700000,0.07200000,-0.98900000,-0.10000000,0.23000000,0.05000000,-0.03044680,-0.05016541,-0.15036019,175.83000000,6.72000000,179.92000000
756,0,-0.11500000,0.06900000,-0.99000000,-0.09000000,-0.00000000,0.13000000,-0.03054317,-0.05016541,-0.15022098,175.83000000,6.72000000,179.92000000
757,0,-0.11900000,0.07200000,-0.99100000,-0.06000000,-0.09000000,0.16000000,-0.03060438,-0.05025722,-0.15005777,175.83000000,6.72000000,179.92000000
758,0,-0.11600000,0.07500000,-0.99200000,0.08000000,0.20000000,-0.11000000,-0.03052355,-0.05005516,-0.15016890,175.83000000,6.72000000,179.92000000
759,0,-0.12100000,0.07100000,-0.98800000,-0.10000000,-0.14000000,-0.15000000,-0.03062449,-0.05019647,-0.15032030,175.83000000,6.72000000,179.92000000
760,0,-0.11900000,0.07300000,-0.99300000,0.22000000,0.09000000,-0.03000000,-0.03040081,-0.05010496,-0.15035080,175.83000000,6.72000000,179.92000000
761,0,-0.11200000,0.06800000,-0.99300000,-0.05000000,0.06000000,-0.17000000,-0.03318120,-0.04676849,-0.15980414,175.83000000,6.72000000,179.92000000
762,0,-0.12000000,0.07100000,-0.99000000,0.22000000,0.15000000,-0.17000000,-0.03294719,-0.04660894,-0.15998497,175.83000000,6.72000000,179.92000000
763,0,-0.11400000,0.07100000,-0.98800000,0.03000000,-0.13000000,-0.04000000,-0.03291666,-0.04674127,-0.16002569,175.83000000,6.72000000,179.92000000
764,0,-0.11600000,0.07100000,-0.98900000,-0.05000000,0.19000000,-0.22000000,-0.03296706,-0.04654972,-0.16024748,175.83000000,6.72000000,179.92000000
765,0,-0.11700000,0.07100000,-0.99100000,-0.01000000,-0.04000000,0.15000000,-0.03297714,-0.04659004,-0.16009629,175.83000000,6.72000000,179.92000000
766,0,-0.11900000,0.07500000,-0.98900000,0.15000000,0.28000000,-0.12000000,-0.03282492,-0.04630589,-0.16021807,175.83000000,6.72000000,179.92000000
767,0,-0.11700000,0.07600000,-0.99000000,-0.00000000,0.18000000,-0.08000000,-0.03282492,-0.03616944,-0.16472316,175.83000000,6.71000000,179.92000000
768,0,-0.11800000,0.07000000,-0.98900000,0.05000000,0.00000000,0.13000000,-0.03277145,-0.03616944,-0.16458414,175.83000000,6.71000000,179.92000000
769,0,-0.11400000,0.07000000,-0.99300000,0.30000000,0.02000000,0.15000000,-0.03245177,-0.03614813,-0.16442430,175.83000000,6.71000000,179.92000000
770,0,-0.11800000,0.06900000,-0.98900000,0.05000000,0.03000000,-0.07000000,-0.03240099,-0.03611766,-0.16449538,175.84000000,6.71000000,179.92000000
771,0,-0.11700000,0.07500000,-0.99200000,0.27000000,0.05000000,0.23000000,-0.03212654,-0.03606684,-0.16426159,175.84000000,6.71000000,179.92000000
772,0,-0.12000000,0.07300000,-0.99100000,-0.05000000,0.04000000,0.15000000,-0.03217708,-0.03602641,-0.16410998,175.84000000,6.71000000,179.92000000
773,0,-0.11200000,0.07200000,-0.99300000,-0.02000000,0.05000000,-0.05000000,-0.03328381,-0.03325958,-0.16687681,175.84000000,6.71000000,179.92000000
774,0,-0.12100000,0.06900000,-0.98900000,-0.20000000,-0.08000000,0.07000000,-0.03349750,-0.03334505,-0.16680202,175.84000000,6.71000000,179.92000000
775,0,-0.11300000,0.07500000,-0.99100000,0.12000000,-0.31000000,-0.26000000,-0.03337527,-0.03366083,-0.16706686,175.83000000,6.71000000,179.92000000
776,0,-0.11500000,0.07000000,-0.99100000,-0.07000000,0.04000000,0.05000000,-0.03344574,-0.03362056,-0.16701652,175.83000000,6.71000000,179.92000000
777,0,-0.11500000,0.07500000,-0.98700000,-0.08000000,-0.12000000,-0.27000000,-0.03352692,-0.03374234,-0.16729052,175.84000000,6.71000000,179.93000000
778,0,-0.11800000,0.07500000,-0.99300000,-0.19000000,-0.08000000,0.16000000,-0.03371910,-0.03382325,-0.16712869,175.84000000,6.71000000,179.93000000
779,0,-0.12400000,0.07100000,-0.98900000,0.07000000,-0.07000000,0.04000000,-0.02976755,-0.03777480,-0.16487066,175.83000000,6.71000000,179.93000000
780,0,-0.11000000,0.06900000,-0.99200000,0.02000000,-0.02000000,0.13000000,-0.02974619,-0.03779617,-0.16473179,175.84000000,6.71000000,179.93000000
781,0,-0.11300000,0.07200000,-0.98800000,-0.15000000,0.03000000,-0.11000000,-0.02989780,-0.03776585,-0.16484297,175.83000000,6.71000000,179.93000000
782,0,-0.11800000,0.07500000,-0.98900000,0.16000000,-0.11000000,0.01000000,-0.02973601,-0.03787708,-0.16483286,175.83000000,6.71000000,179.93000000
783,0,-0.11400000,0.07300000,-0.99100000,-0.11000000,0.04000000,0.08000000,-0.02984614,-0.03783703,-0.16475276,175.83000000,6.71000000,179.93000000
784,0,-0.11900000,0.07500000,-0.99100000,0.06000000,-0.01000000,-0.08000000,-0.02978570,-0.03784711,-0.16483336,175.83000000,6.71000000,179.93000000
785,0,-0.11600000,0.06700000,-0.98700000,-0.02000000,-0.08000000,0.10000000,-0.03089513,-0.04228483,-0.15928620,175.83000000,6.71000000,179.93000000
786,0,-0.12000000,0.07300000,-0.98900000,-0.21000000,-0.03000000,-0.01000000,-0.03111970,-0.04231691,-0.15929690,175.83000000,6.71000000,179.93000000
787,0,-0.11600000,0.06900000,-0.99200000,-0.15000000,-0.16000000,-0.05000000,-0.03127278,-0.04248020,-0.15934793,175.83000000,6.71000000,179.93000000
788,0,-0.11100000,0.07500000,-0.99000000,-0.00000000,-0.10000000,-0.11000000,-0.03127278,-0.04258232,-0.15946026,175.83000000,6.71000000,179.93000000
789,0,-0.11500000,0.06500000,-0.99000000,0.03000000,0.09000000,0.11000000,-0.03124252,-0.04249155,-0.15934932,175.83000000,6.71000000,179.93000000
790,0,-0.11500000,0.06900000,-0.99100000,0.11000000,-0.09000000,-0.03000000,-0.03113202,-0.04258196,-0.15937945,175.84000000,6.71000000,179.93000000
791,0,-0.11500000,0.07300000,-0.99300000,-0.02000000,0.23000000,0.06000000,-0.03224069,-0.02983223,-0.15605344,175.84000000,6.71000000,179.93000000
792,0,-0.11500000,0.06900000,-0.99500000,-0.16000000,0.03000000,0.26000000,-0.03241188,-0.02980013,-0.15577527,175.84000000,6.71000000,179.93000000
793,0,-0.11200000,0.07700000,-0.99300000,-0.04000000,0.19000000,0.22000000,-0.03245480,-0.02959626,-0.15553921,175.83000000,6.71000000,179.93000000
794,0,-0.11700000,0.07300000,-0.99200000,0.10000000,0.09000000,-0.02000000,-0.03235072,-0.02950259,-0.15556002,175.83000000,6.71000000,179.93000000
795,0,-0.12200000,0.07500000,-0.98900000,0.01000000,0.12000000,-0.10000000,-0.03234060,-0.02938121,-0.15566117,175.83000000,6.71000000,179.93000000
796,0,-0.11300000,0.07200000,-0.98900000,0.02000000,0.18000000,-0.01000000,-0.03232045,-0.02919983,-0.15567125,175.83000000,6.71000000,179.93000000
797,0,-0.11700000,0.07100000,-0.99100000,-0.03000000,0.10000000,-0.23000000,-0.03401104,-0.02356454,-0.16863243,175.83000000,6.70000000,179.93000000
798,0,-0.11600000,0.06800000,-0.98900000,-0.05000000,-0.00000000,-0.21000000,-0.03406573,-0.02356454,-0.16886216,175.83000000,6.70000000,179.93000000
799,0,-0.11500000,0.07100000,-0.99200000,-0.08000000,0.16000000,-0.15000000,-0.03414789,-0.02340022,-0.16901621,175.83000000,6.70000000,179.93000000
800,0,-0.11500000,0.07900000,-0.98900000,0.08000000,-0.01000000,0.13000000,-0.03406711,-0.02341032,-0.16888493,175.83000000,6.70000000,179.93000000
801,0,-0.11400000,0.07600000,-0.99500000,0.03000000,0.39000000,-0.15000000,-0.03403696,-0.02301836,-0.16903569,175.83000000,6.70000000,179.93000000
802,0,-0.11300000,0.07400000,-0.99300000,-0.04000000,0.02000000,-0.10000000,-0.03407729,-0.02299819,-0.16913653,175.83000000,6.70000000,179.93000000
803,0,-0.11600000,0.07000000,-0.98900000,0.01000000,-0.13000000,-0.09000000,-0.03352293,-0.03020487,-0.17412577,175.83000000,6.70000000,179.93000000
804,0,-0.11600000,0.06800000,-0.98700000,-0.35000000,-0.13000000,0.01000000,-0.03389389,-0.03034265,-0.17411517,175.83000000,6.70000000,179.93000000
805,0,-0.11000000,0.07400000,-0.99200000,-0.00000000,-0.03000000,-0.24000000,-0.03389389,-0.03037340,-0.17436118,175.83000000,6.70000000,179.93000000
806,0,-0.11300000,0.07300000,-0.99300000,-0.09000000,-0.31000000,0.19000000,-0.03398453,-0.03068563,-0.17416982,175.83000000,6.70000000,179.93000000
807,0,-0.11500000,0.07200000,-0.99300000,0.23000000,0.17000000,-0.23000000,-0.03375376,-0.03051506,-0.17440059,175.83000000,6.70000000,179.93000000
808,0,-0.11700000,0.07400000,-0.99600000,-0.14000000,-0.00000000,-0.01000000,-0.03389486,-0.03051506,-0.17441067,175.83000000,6.70000000,179.93000000
