Measurement Count,IMU_MODE,Gyro_X,Gyro_Y,Gyro_Z,Accel_X,Accel_Y,Accel_Z,ROLL,PITCH,HEADING
1,0,-0.00500000,0.00200000,1.00500000,0.12000000,0.11000000,0.09000000,0.05000000,0.28000000,0.00000000
2,0,-0.00300000,0.00100000,1.00100000,0.05000000,0.08000000,-0.08000000,0.05000000,0.29000000,-0.00000000
3,0,-0.00400000,-0.00300000,1.00000000,-0.10000000,-0.22000000,-0.16000000,0.04000000,0.28000000,-0.00000000
4,0,-0.00500000,0.00200000,0.99900000,0.10000000,0.06000000,-0.02000000,0.04000000,0.28000000,-0.00000000
5,0,-0.00600000,0.00200000,1.00500000,0.01000000,0.22000000,0.15000000,0.05000000,0.28000000,-0.00000000
6,0,-0.00400000,0.00200000,1.00300000,0.14000000,0.04000000,-0.08000000,0.05000000,0.29000000,-0.00000000
7,0,-0.00800000,0.00300000,0.99800000,-0.00000000,0.08000000,-0.16000000,0.05000000,0.29000000,-0.00000000
8,0,-0.00600000,-0.00100000,1.00200000,0.01000000,0.04000000,-0.01000000,0.04000000,0.29000000,-0.00000000
9,0,-0.00100000,0.00000000,1.00100000,0.12000000,-0.11000000,0.21000000,0.04000000,0.29000000,-0.00000000
10,0,-0.00400000,-0.00100000,1.00400000,0.23000000,-0.20000000,-0.01000000,0.04000000,0.29000000,0.00000000
11,0,-0.00600000,-0.00000000,1.00200000,-0.11000000,0.13000000,-0.18000000,0.04000000,0.29000000,0.00000000
12,0,-0.00300000,0.00100000,1.00000000,-0.01000000,-0.16000000,0.09000000,0.04000000,0.29000000,0.00000000
13,0,-0.00600000,0.00200000,1.00400000,0.35000000,-0.01000000,0.01000000,0.04000000,0.30000000,0.00000000
14,0,-0.00600000,0.00100000,1.00000000,-0.08000000,0.01000000,0.23000000,0.04000000,0.30000000,0.00000000
15,0,-0.00200000,-0.00300000,1.00100000,-0.21000000,-0.18000000,-0.06000000,0.04000000,0.30000000,0.00000000
16,0,-0.00200000,0.00100000,1.00000000,0.17000000,0.24000000,0.07000000,0.04000000,0.30000000,0.00000000
17,0,-0.00200000,0.00400000,0.99700000,-0.28000000,-0.05000000,0.24000000,0.04000000,0.30000000,0.00000000
18,0,-0.00400000,0.00100000,0.99900000,-0.15000000,-0.07000000,-0.02000000,0.05000000,0.30000000,0.00000000
19,0,-0.00500000,0.00100000,0.99900000,-0.01000000,-0.05000000,-0.07000000,0.05000000,0.30000000,0.00000000
20,0,-0.00200000,0.00200000,1.00200000,0.01000000,-0.02000000,-0.24000000,0.05000000,0.30000000,0.00000000
21,0,-0.00300000,0.00300000,0.99900000,0.12000000,-0.07000000,0.03000000,0.05000000,0.30000000,0.00000000
22,0,-0.00100000,-0.00000000,0.99900000,-0.06000000,0.01000000,-0.09000000,0.05000000,0.29000000,0.00000000
23,0,-0.00400000,0.00000000,1.00300000,-0.12000000,0.11000000,-0.22000000,0.05000000,0.30000000,0.00000000
24,0,-0.00500000,-0.00200000,1.00100000,0.05000000,0.02000000,0.10000000,0.05000000,0.30000000,0.00000000
25,0,-0.00200000,0.00100000,0.99700000,-0.20000000,-0.20000000,-0.17000000,0.05000000,0.30000000,0.00000000
26,0,-0.00700000,-0.00100000,0.99900000,-0.03000000,0.17000000,0.08000000,0.05000000,0.30000000,0.00000000
27,0,-0.00600000,-0.00200000,1.00100000,-0.01000000,0.15000000,0.08000000,0.05000000,0.29000000,0.00000000
28,0,-0.00300000,0.00200000,1.00200000,0.13000000,-0.02000000,-0.00000000,0.04000000,0.29000000,0.00000000
29,0,-0.00300000,0.00200000,0.99900000,0.16000000,-0.14000000,0.22000000,0.04000000,0.29000000,0.00000000
30,0,-0.00500000,0.00100000,1.00300000,-0.18000000,0.10000000,-0.38000000,0.04000000,0.29000000,0.00000000
31,0,-0.01000000,0.00600000,0.99800000,0.07000000,-0.19000000,0.13000000,0.05000000,0.29000000,0.00000000
32,0,-0.00300000,0.00500000,1.00200000,-0.02000000,-0.04000000,-0.04000000,0.05000000,0.29000000,0.00000000
33,0,-0.00400000,0.00400000,0.99800000,0.06000000,0.23000000,-0.13000000,0.04000000,0.29000000,0.00000000
34,0,-0.00500000,-0.00300000,1.00100000,-0.17000000,0.04000000,0.04000000,0.04000000,0.29000000,0.00000000
35,0,-0.00600000,0.00200000,1.00000000,-0.11000000,-0.02000000,0.01000000,0.04000000,0.29000000,0.00000000
36,0,-0.00600000,0.00500000,0.99700000,-0.16000000,-0.04000000,-0.21000000,0.04000000,0.29000000,0.00000000
37,0,-0.00400000,0.00000000,1.00400000,0.06000000,0.01000000,0.06000000,0.04000000,0.29000000,-0.00000000
38,0,-0.00300000,-0.00200000,0.99600000,-0.02000000,0.04000000,0.00000000,0.04000000,0.29000000,-0.00000000
39,0,-0.01000000,0.00200000,0.99900000,-0.23000000,-0.10000000,0.06000000,0.04000000,0.29000000,-0.00000000
40,0,-0.00200000,0.00500000,0.99800000,0.01000000,0.03000000,-0.01000000,0.04000000,0.29000000,-0.00000000
41,0,-0.00700000,0.00300000,1.00000000,0.22000000,-0.13000000,0.09000000,0.04000000,0.29000000,-0.00000000
42,0,-0.00900000,0.00200000,0.99700000,0.29000000,-0.10000000,0.09000000,0.04000000,0.29000000,-0.00000000
43,0,-0.00800000,0.00400000,0.99800000,-0.17000000,0.00000000,0.08000000,0.04000000,0.29000000,-0.00000000
44,0,-0.00500000,0.00100000,0.99900000,-0.03000000,-0.05000000,-0.45000000,0.04000000,0.29000000,-0.00000000
45,0,-0.00100000,0.00100000,1.00000000,-0.15000000,0.13000000,-0.10000000,0.04000000,0.29000000,-0.00000000
46,0,-0.00500000,-0.00100000,0.99800000,0.10000000,-0.14000000,0.20000000,0.04000000,0.29000000,-0.00000000
47,0,-0.00400000,0.00500000,1.00500000,0.04000000,-0.10000000,-0.26000000,0.04000000,0.29000000,-0.00000000
48,0,-0.00100000,0.00500000,1.00200000,0.32000000,-0.13000000,0.03000000,0.04000000,0.29000000,-0.00000000
49,0,-0.00400000,-0.00100000,0.99700000,0.20000000,0.06000000,0.15000000,0.04000000,0.29000000,-0.00000000
50,0,-0.00600000,-0.00300000,0.99900000,0.04000000,-0.05000000,0.04000000,0.04000000,0.29000000,-0.00000000
51,0,0.00200000,0.00100000,1.00100000,-0.00000000,-0.05000000,0.05000000,0.04000000,0.29000000,-0.00000000
52,0,0.00100000,-0.00300000,1.00200000,0.17000000,-0.08000000,0.03000000,0.04000000,0.29000000,-0.00000000
53,0,-0.00200000,0.00500000,0.99800000,-0.12000000,0.16000000,-0.04000000,0.04000000,0.29000000,-0.00000000
54,0,-0.00400000,0.00100000,1.00100000,0.07000000,-0.10000000,-0.16000000,0.04000000,0.29000000,-0.00000000
55,0,-0.00800000,-0.00100000,0.99800000,0.07000000,-0.13000000,-0.21000000,0.04000000,0.29000000,-0.00000000
56,0,-0.00300000,-0.00200000,0.99700000,0.12000000,-0.05000000,-0.08000000,0.04000000,0.29000000,-0.01000000
57,0,-0.00800000,-0.00100000,1.00000000,0.21000000,-0.14000000,-0.01000000,0.04000000,0.29000000,-0.01000000
58,0,-0.00600000,-0.00100000,1.00100000,-0.02000000,-0.02000000,0.28000000,0.04000000,0.29000000,-0.00000000
59,0,-0.00200000,0.00200000,0.99900000,-0.03000000,-0.14000000,0.29000000,0.04000000,0.29000000,-0.00000000
60,0,-0.00600000,0.00000000,1.00200000,-0.06000000,0.14000000,0.23000000,0.04000000,0.29000000,-0.00000000
61,0,-0.00500000,-0.00100000,0.99700000,-0.12000000,-0.07000000,0.21000000,0.05000000,0.29000000,-0.00000000
62,0,-0.00300000,-0.00300000,1.00200000,-0.03000000,-0.14000000,-0.03000000,0.04000000,0.29000000,-0.00000000
63,0,-0.00600000,0.00300000,0.99700000,-0.10000000,-0.21000000,-0.06000000,0.04000000,0.29000000,-0.00000000
64,0,-0.00600000,0.00000000,0.99800000,0.06000000,0.03000000,0.43000000,0.04000000,0.29000000,-0.00000000
65,0,-0.01000000,-0.00100000,0.99800000,-0.09000000,-0.08000000,0.03000000,0.04000000,0.29000000,-0.00000000
66,0,-0.00300000,0.00400000,1.00100000,-0.12000000,-0.08000000,0.00000000,0.04000000,0.29000000,-0.00000000
67,0,-0.00900000,0.00000000,0.99800000,-0.09000000,0.22000000,-0.07000000,0.04000000,0.29000000,-0.00000000
68,0,-0.01200000,-0.00000000,1.00300000,0.22000000,0.12000000,-0.03000000,0.04000000,0.29000000,-0.00000000
69,0,-0.00400000,0.00200000,0.99800000,0.00000000,-0.07000000,-0.33000000,0.05000000,0.29000000,-0.01000000
70,0,-0.00700000,0.00300000,0.99800000,-0.03000000,0.02000000,-0.07000000,0.05000000,0.29000000,-0.01000000
71,0,-0.00400000,-0.00100000,0.99800000,0.12000000,-0.09000000,0.19000000,0.05000000,0.29000000,-0.01000000
72,0,-0.00400000,0.00100000,1.00100000,0.10000000,-0.06000000,-0.01000000,0.05000000,0.29000000,-0.01000000
73,0,-0.00500000,-0.00300000,0.99700000,-0.12000000,0.02000000,-0.04000000,0.05000000,0.29000000,-0.00000000
74,0,-0.00800000,0.00100000,0.99700000,-0.14000000,-0.21000000,-0.18000000,0.05000000,0.29000000,-0.01000000
75,0,-0.00900000,0.00100000,0.99900000,0.03000000,-0.17000000,-0.09000000,0.05000000,0.29000000,-0.01000000
76,0,-0.00400000,-0.00300000,0.99900000,-0.15000000,-0.05000000,-0.18000000,0.04000000,0.29000000,-0.01000000
77,0,-0.00700000,0.00200000,1.00000000,-0.07000000,-0.04000000,-0.20000000,0.04000000,0.29000000,-0.01000000
78,0,0.00200000,0.00600000,1.00100000,0.13000000,0.03000000,-0.19000000,0.05000000,0.29000000,-0.01000000
79,0,-0.00400000,-0.00300000,1.00300000,-0.15000000,0.29000000,-0.07000000,0.05000000,0.29000000,-0.01000000
80,0,-0.00800000,-0.00100000,0.99900000,-0.30000000,-0.05000000,0.02000000,0.05000000,0.29000000,-0.01000000
81,0,-0.00800000,0.00100000,0.99800000,0.18000000,0.23000000,0.12000000,0.05000000,0.29000000,-0.01000000
82,0,-0.00700000,-0.00100000,0.99900000,0.13000000,-0.13000000,-0.12000000,0.05000000,0.29000000,-0.01000000
83,0,-0.00800000,0.00200000,0.99600000,-0.10000000,-0.12000000,0.02000000,0.05000000,0.29000000,-0.01000000
84,0,-0.00400000,0.00000000,1.00100000,0.03000000,0.14000000,0.12000000,0.05000000,0.29000000,-0.01000000
85,0,-0.00500000,-0.00100000,1.00300000,0.01000000,0.19000000,0.15000000,0.05000000,0.29000000,-0.01000000
86,0,-0.00800000,-0.00300000,1.00100000,-0.01000000,-0.17000000,0.01000000,0.05000000,0.29000000,-0.01000000
87,0,-0.00500000,0.00200000,0.99900000,-0.01000000,0.12000000,-0.02000000,0.05000000,0.29000000,-0.01000000
88,0,-0.00700000,-0.00400000,1.00600000,-0.12000000,-0.18000000,-0.36000000,0.05000000,0.29000000,-0.01000000
89,0,-0.00400000,-0.00000000,1.00300000,-0.14000000,-0.14000000,0.15000000,0.05000000,0.29000000,-0.01000000
90,0,-0.00400000,-0.00100000,1.00300000,-0.09000000,0.08000000,0.06000000,0.05000000,0.29000000,-0.01000000
91,0,-0.00500000,-0.00000000,1.00300000,-0.06000000,0.14000000,-0.19000000,0.05000000,0.29000000,-0.01000000
92,0,-0.00500000,-0.00000000,0.99800000,0.04000000,-0.01000000,-0.23000000,0.05000000,0.29000000,-0.01000000
93,0,-0.00500000,0.00400000,1.00200000,0.13000000,-0.12000000,-0.08000000,0.05000000,0.29000000,-0.01000000
94,0,-0.00100000,0.00200000,1.00200000,0.10000000,0.08000000,0.09000000,0.05000000,0.29000000,-0.01000000
95,0,-0.00400000,0.00100000,1.00100000,-0.15000000,0.17000000,-0.03000000,0.05000000,0.29000000,-0.01000000
96,0,-0.00600000,-0.00200000,0.99900000,-0.05000000,0.01000000,0.08000000,0.05000000,0.29000000,-0.01000000
97,0,-0.00300000,0.00200000,1.00200000,0.12000000,0.11000000,-0.05000000,0.05000000,0.29000000,-0.01000000
98,0,-0.00500000,0.00100000,1.00100000,0.12000000,-0.05000000,-0.06000000,0.05000000,0.29000000,-0.01000000
99,0,-0.00100000,-0.00400000,0.99800000,-0.03000000,0.06000000,-0.19000000,0.05000000,0.29000000,-0.01000000
100,0,-0.00200000,-0.00000000,1.00300000,0.01000000,-0.10000000,-0.10000000,0.05000000,0.29000000,-0.01000000
101,0,-0.00500000,0.00100000,1.00100000,0.12000000,-0.02000000,0.04000000,0.05000000,0.29000000,-0.01000000
102,0,-0.00600000,0.00100000,0.99900000,-0.14000000,-0.20000000,-0.16000000,0.05000000,0.29000000,-0.01000000
103,0,-0.00400000,-0.00000000,0.99800000,0.02000000,0.02000000,-0.04000000,0.05000000,0.29000000,-0.01000000
104,0,-0.00200000,0.00400000,1.00000000,-0.22000000,0.14000000,0.03000000,0.05000000,0.29000000,-0.01000000
105,0,-0.00300000,0.00200000,1.00100000,-0.14000000,0.03000000,0.09000000,0.06000000,0.29000000,-0.01000000
106,0,-0.00200000,-0.00400000,0.99900000,0.15000000,0.04000000,0.07000000,0.06000000,0.29000000,-0.01000000
107,0,-0.00500000,-0.00000000,0.99900000,-0.13000000,0.14000000,-0.03000000,0.06000000,0.29000000,-0.01000000
108,0,-0.00300000,0.00500000,1.00200000,-0.17000000,-0.00000000,-0.22000000,0.06000000,0.29000000,-0.01000000
109,0,-0.00700000,0.00200000,1.00300000,0.01000000,0.10000000,-0.01000000,0.05000000,0.28000000,-0.01000000
110,0,-0.00300000,-0.00100000,1.00000000,-0.07000000,0.00000000,0.15000000,0.05000000,0.28000000,-0.01000000
111,0,-0.00400000,0.00200000,1.00100000,0.13000000,0.02000000,-0.13000000,0.06000000,0.28000000,-0.01000000
112,0,-0.00200000,-0.00100000,0.99800000,-0.00000000,0.07000000,0.15000000,0.05000000,0.28000000,-0.01000000
113,0,-0.00500000,0.00400000,1.00300000,0.07000000,-0.24000000,0.14000000,0.05000000,0.28000000,-0.01000000
114,0,-0.00800000,0.00500000,0.99800000,-0.02000000,0.07000000,-0.12000000,0.06000000,0.28000000,-0.01000000
115,0,-0.00500000,-0.00000000,1.00300000,0.03000000,-0.12000000,0.03000000,0.05000000,0.28000000,-0.01000000
116,0,-0.01000000,-0.00100000,1.00100000,-0.14000000,0.07000000,-0.27000000,0.06000000,0.28000000,-0.01000000
117,0,-0.00900000,0.00200000,0.99600000,-0.05000000,-0.09000000,-0.09000000,0.06000000,0.28000000,-0.01000000
118,0,-0.00700000,0.00400000,1.00100000,-0.36000000,-0.19000000,-0.10000000,0.06000000,0.28000000,-0.01000000
119,0,-0.00600000,0.00100000,1.00500000,-0.11000000,-0.31000000,-0.20000000,0.06000000,0.28000000,-0.01000000
120,0,-0.00600000,0.00000000,1.00400000,0.07000000,0.09000000,-0.05000000,0.06000000,0.28000000,-0.01000000
121,0,-0.00600000,0.00600000,0.99800000,-0.07000000,-0.20000000,-0.17000000,0.06000000,0.28000000,-0.01000000
122,0,-0.00300000,-0.00100000,0.99800000,0.07000000,0.07000000,-0.05000000,0.06000000,0.28000000,-0.01000000
123,0,-0.00600000,0.00400000,1.00200000,0.06000000,-0.20000000,-0.03000000,0.06000000,0.28000000,-0.01000000
124,0,-0.00700000,-0.00100000,1.00200000,-0.02000000,0.29000000,-0.22000000,0.06000000,0.28000000,-0.01000000
125,0,-0.00500000,-0.00300000,0.99800000,0.07000000,-0.01000000,-0.22000000,0.06000000,0.28000000,-0.01000000
126,0,-0.00800000,0.00000000,0.99700000,0.04000000,0.01000000,0.10000000,0.06000000,0.28000000,-0.01000000
127,0,-0.00300000,0.00100000,1.00000000,0.28000000,0.04000000,-0.00000000,0.06000000,0.28000000,-0.01000000
128,0,-0.00300000,-0.00200000,0.99800000,0.32000000,-0.02000000,-0.09000000,0.06000000,0.28000000,-0.01000000
129,0,-0.00200000,0.00000000,1.00000000,-0.31000000,0.01000000,0.14000000,0.06000000,0.28000000,-0.01000000
130,0,-0.00300000,-0.00600000,1.00100000,0.23000000,-0.10000000,0.03000000,0.05000000,0.28000000,-0.01000000
131,0,-0.00700000,-0.00000000,1.00300000,0.13000000,-0.04000000,0.09000000,0.05000000,0.28000000,-0.01000000
132,0,-0.00700000,0.00500000,1.00300000,-0.04000000,0.13000000,0.12000000,0.05000000,0.28000000,-0.01000000
133,0,-0.00800000,-0.00100000,0.99800000,0.01000000,0.22000000,0.02000000,0.06000000,0.28000000,-0.01000000
134,0,-0.00800000,-0.00500000,0.99800000,-0.13000000,0.09000000,-0.01000000,0.05000000,0.28000000,-0.01000000
135,0,-0.00800000,0.00400000,1.00100000,-0.19000000,-0.19000000,0.01000000,0.05000000,0.28000000,-0.01000000
136,0,-0.00500000,0.00600000,0.99800000,-0.06000000,-0.07000000,-0.10000000,0.05000000,0.29000000,-0.01000000
137,0,-0.00100000,0.00200000,0.99800000,-0.16000000,0.04000000,0.00000000,0.05000000,0.29000000,-0.01000000
138,0,-0.00400000,-0.00200000,0.99500000,-0.06000000,0.21000000,0.26000000,0.06000000,0.29000000,-0.01000000
139,0,-0.00000000,0.00300000,0.99900000,0.04000000,-0.06000000,-0.19000000,0.06000000,0.29000000,-0.01000000
140,0,-0.00400000,0.00300000,1.00100000,0.12000000,-0.23000000,0.15000000,0.06000000,0.29000000,-0.01000000
141,0,-0.00900000,0.00600000,1.00000000,0.04000000,0.20000000,-0.19000000,0.06000000,0.29000000,-0.01000000
142,0,-0.00700000,-0.00400000,0.99900000,0.04000000,0.11000000,-0.03000000,0.06000000,0.28000000,-0.01000000
143,0,-0.00800000,0.00800000,1.00000000,0.10000000,0.01000000,0.07000000,0.06000000,0.28000000,-0.01000000
144,0,-0.00200000,0.00300000,1.00400000,-0.18000000,0.06000000,0.13000000,0.06000000,0.28000000,-0.01000000
145,0,-0.01000000,0.00400000,0.99800000,-0.33000000,0.00000000,-0.18000000,0.06000000,0.28000000,-0.01000000
146,0,0.00000000,0.00100000,1.00100000,-0.13000000,-0.03000000,-0.12000000,0.06000000,0.28000000,-0.01000000
147,0,-0.00800000,-0.00200000,1.00300000,0.00000000,-0.07000000,-0.38000000,0.06000000,0.28000000,-0.01000000
148,0,-0.00100000,-0.00200000,1.00100000,0.07000000,0.19000000,0.14000000,0.06000000,0.28000000,-0.01000000
149,0,-0.00200000,0.00000000,0.99900000,-0.08000000,-0.03000000,0.15000000,0.06000000,0.28000000,-0.01000000
150,0,-0.00300000,0.00300000,1.00000000,0.00000000,0.08000000,0.02000000,0.06000000,0.28000000,-0.01000000
151,0,-0.00600000,0.00200000,1.00200000,0.09000000,0.07000000,0.06000000,0.06000000,0.28000000,-0.01000000
152,0,-0.00500000,0.00400000,1.00000000,-0.21000000,-0.07000000,-0.08000000,0.06000000,0.28000000,-0.01000000
153,0,-0.00200000,0.00300000,0.99800000,0.19000000,-0.25000000,-0.07000000,0.06000000,0.28000000,-0.01000000
154,0,-0.00600000,0.00700000,0.99700000,0.18000000,-0.23000000,-0.06000000,0.06000000,0.28000000,-0.01000000
155,0,-0.00200000,0.00200000,1.00000000,0.10000000,0.22000000,-0.05000000,0.06000000,0.28000000,-0.01000000
156,0,-0.00400000,0.00400000,1.00000000,-0.05000000,0.19000000,-0.05000000,0.06000000,0.28000000,-0.01000000
157,0,-0.00400000,-0.00300000,1.00000000,0.16000000,0.13000000,0.07000000,0.06000000,0.28000000,-0.01000000
158,0,-0.00500000,-0.00000000,1.00100000,-0.25000000,-0.18000000,0.21000000,0.06000000,0.28000000,-0.01000000
159,0,-0.00400000,-0.00200000,1.00200000,-0.09000000,0.17000000,-0.10000000,0.06000000,0.28000000,-0.01000000
160,0,-0.00400000,0.00300000,0.99600000,0.20000000,0.19000000,0.18000000,0.06000000,0.28000000,-0.01000000
161,0,-0.00400000,-0.00200000,0.99900000,-0.11000000,-0.12000000,-0.08000000,0.06000000,0.28000000,-0.01000000
162,0,-0.00600000,0.00100000,1.00300000,-0.09000000,0.01000000,0.13000000,0.06000000,0.28000000,-0.01000000
163,0,-0.00300000,-0.00400000,1.00000000,0.03000000,0.30000000,-0.04000000,0.06000000,0.28000000,-0.01000000
164,0,-0.00200000,0.00800000,0.99800000,0.07000000,0.04000000,-0.03000000,0.06000000,0.28000000,-0.01000000
165,0,-0.00300000,0.00100000,1.00500000,-0.01000000,0.04000000,0.09000000,0.06000000,0.28000000,-0.01000000
166,0,-0.00900000,-0.00200000,1.00200000,0.09000000,0.06000000,0.18000000,0.06000000,0.28000000,-0.01000000
167,0,-0.00500000,-0.00300000,0.99800000,-0.12000000,-0.11000000,-0.04000000,0.06000000,0.29000000,-0.01000000
168,0,-0.00900000,-0.00200000,1.00000000,-0.07000000,0.04000000,0.09000000,0.06000000,0.29000000,-0.01000000
169,0,-0.01100000,-0.00000000,0.99600000,-0.02000000,-0.16000000,0.21000000,0.06000000,0.29000000,-0.01000000
170,0,-0.00300000,0.00200000,0.99800000,0.25000000,-0.02000000,0.01000000,0.06000000,0.29000000,-0.01000000
171,0,-0.00300000,-0.00500000,1.00100000,-0.07000000,-0.05000000,-0.03000000,0.05000000,0.28000000,-0.01000000
172,0,-0.00200000,-0.00100000,0.99900000,0.15000000,-0.16000000,0.04000000,0.05000000,0.28000000,-0.01000000
173,0,-0.00000000,-0.00000000,1.00000000,0.10000000,0.37000000,-0.21000000,0.05000000,0.28000000,-0.01000000
174,0,-0.00800000,-0.00400000,1.00000000,-0.13000000,-0.03000000,0.03000000,0.05000000,0.28000000,-0.01000000
175,0,-0.00300000,0.00000000,1.00100000,0.09000000,0.35000000,0.29000000,0.05000000,0.29000000,-0.01000000
176,0,-0.01000000,0.00400000,1.00200000,0.24000000,-0.02000000,0.16000000,0.05000000,0.29000000,-0.01000000
177,0,-0.00600000,0.00100000,1.00300000,-0.17000000,0.15000000,-0.09000000,0.05000000,0.29000000,-0.01000000
178,0,-0.00800000,0.00000000,1.00500000,0.13000000,0.05000000,0.02000000,0.05000000,0.29000000,-0.01000000
179,0,-0.01000000,-0.00200000,1.00000000,0.07000000,0.10000000,0.01000000,0.05000000,0.29000000,-0.01000000
180,0,-0.00400000,-0.00200000,0.99800000,-0.00000000,-0.09000000,0.24000000,0.05000000,0.29000000,-0.01000000
181,0,-0.00700000,0.00900000,1.00500000,-0.23000000,-0.12000000,0.02000000,0.05000000,0.29000000,-0.01000000
182,0,-0.01100000,0.00200000,0.99700000,-0.16000000,0.19000000,0.15000000,0.05000000,0.29000000,-0.01000000
183,0,-0.00900000,0.00200000,1.00200000,0.02000000,0.07000000,-0.18000000,0.05000000,0.29000000,-0.01000000
184,0,-0.00600000,-0.00200000,1.00000000,0.24000000,-0.20000000,0.13000000,0.05000000,0.29000000,-0.01000000
185,0,-0.00600000,0.00300000,1.00200000,-0.07000000,0.07000000,0.03000000,0.05000000,0.29000000,-0.01000000
186,0,-0.00600000,0.00100000,1.00000000,-0.09000000,-0.13000000,-0.15000000,0.05000000,0.29000000,-0.01000000
187,0,-0.00600000,-0.00000000,1.00300000,0.06000000,0.21000000,0.25000000,0.05000000,0.29000000,-0.01000000
188,0,-0.00800000,0.00000000,0.99700000,0.01000000,-0.24000000,-0.05000000,0.05000000,0.29000000,-0.01000000
189,0,-0.00400000,0.00400000,1.00400000,-0.18000000,-0.13000000,0.14000000,0.05000000,0.29000000,-0.01000000
190,0,-0.00600000,0.00100000,0.99900000,0.25000000,0.17000000,-0.13000000,0.05000000,0.29000000,-0.01000000
191,0,-0.00600000,0.00300000,0.99900000,0.06000000,0.09000000,0.22000000,0.05000000,0.29000000,-0.01000000
192,0,-0.00500000,0.00100000,1.00300000,0.04000000,-0.16000000,-0.03000000,0.05000000,0.29000000,-0.00000000
193,0,-0.00600000,-0.00100000,0.99800000,0.15000000,0.25000000,0.21000000,0.05000000,0.29000000,-0.01000000
194,0,-0.00600000,-0.00000000,1.00500000,0.09000000,-0.06000000,0.04000000,0.05000000,0.29000000,-0.01000000
195,0,-0.00200000,0.00100000,0.99800000,-0.01000000,-0.20000000,0.08000000,0.05000000,0.29000000,-0.01000000
196,0,-0.00900000,-0.00300000,0.99800000,-0.04000000,-0.02000000,-0.00000000,0.05000000,0.29000000,-0.01000000
197,0,-0.00700000,-0.00200000,1.00100000,0.02000000,0.07000000,0.10000000,0.05000000,0.29000000,-0.01000000
198,0,-0.00300000,-0.00100000,1.00300000,-0.03000000,-0.04000000,-0.02000000,0.05000000,0.28000000,-0.00000000
199,0,-0.01000000,0.00200000,0.99900000,0.01000000,0.29000000,0.01000000,0.05000000,0.29000000,-0.00000000
200,0,-0.01000000,-0.00200000,1.00100000,-0.31000000,0.08000000,0.04000000,0.05000000,0.29000000,-0.00000000
201,0,0.00100000,-0.00300000,0.99900000,0.12000000,0.19000000,0.01000000,0.05000000,0.29000000,-0.00000000
202,0,-0.00300000,0.00200000,1.00100000,-0.22000000,-0.15000000,0.14000000,0.05000000,0.29000000,-0.00000000
203,0,-0.00500000,0.00200000,1.00000000,0.11000000,-0.02000000,-0.18000000,0.05000000,0.29000000,-0.01000000
204,0,-0.00600000,0.00000000,0.99500000,-0.01000000,-0.03000000,-0.07000000,0.05000000,0.29000000,-0.01000000
205,0,-0.00200000,0.00400000,0.99900000,0.07000000,0.19000000,-0.00000000,0.05000000,0.29000000,-0.01000000
206,0,-0.00100000,-0.00100000,0.99900000,0.17000000,-0.06000000,-0.08000000,0.05000000,0.29000000,-0.01000000
207,0,-0.00400000,-0.00100000,1.00100000,-0.01000000,0.20000000,-0.06000000,0.05000000,0.29000000,-0.01000000
208,0,-0.00300000,-0.00400000,0.99600000,0.09000000,-0.13000000,0.15000000,0.05000000,0.29000000,-0.01000000
209,0,-0.00400000,-0.00100000,0.99900000,0.08000000,-0.04000000,0.10000000,0.05000000,0.29000000,-0.01000000
210,0,-0.00000000,0.00000000,0.99800000,-0.08000000,0.09000000,-0.02000000,0.05000000,0.29000000,-0.01000000
211,0,-0.00300000,-0.00100000,0.99900000,0.04000000,-0.07000000,-0.03000000,0.05000000,0.28000000,-0.01000000
212,0,-0.00600000,0.00200000,1.00100000,0.20000000,0.04000000,0.05000000,0.05000000,0.29000000,-0.01000000
213,0,-0.00700000,-0.00300000,0.99900000,-0.04000000,-0.02000000,0.15000000,0.05000000,0.29000000,-0.01000000
214,0,-0.00400000,0.00100000,1.00100000,0.17000000,0.05000000,0.19000000,0.05000000,0.29000000,-0.00000000
215,0,-0.00900000,-0.00200000,1.00000000,-0.10000000,-0.19000000,-0.09000000,0.05000000,0.29000000,-0.00000000
216,0,-0.00200000,0.00100000,1.00100000,-0.15000000,0.08000000,0.10000000,0.05000000,0.29000000,-0.00000000
217,0,-0.00600000,0.00400000,1.00500000,0.10000000,-0.25000000,0.15000000,0.05000000,0.28000000,-0.00000000
218,0,-0.00400000,0.00400000,1.00300000,0.01000000,0.15000000,-0.11000000,0.05000000,0.29000000,-0.00000000
219,0,-0.00300000,-0.00200000,0.99900000,0.12000000,0.03000000,0.09000000,0.05000000,0.29000000,-0.00000000
220,0,-0.00700000,0.00100000,0.99700000,0.14000000,0.01000000,0.16000000,0.05000000,0.29000000,-0.00000000
221,0,-0.00300000,-0.00100000,0.99300000,-0.07000000,0.04000000,0.18000000,0.05000000,0.29000000,-0.00000000
222,0,-0.00900000,-0.00200000,1.00000000,-0.04000000,0.29000000,0.00000000,0.05000000,0.28000000,-0.00000000
223,0,0.00100000,0.00200000,1.00600000,-0.08000000,0.02000000,-0.07000000,0.05000000,0.29000000,-0.00000000
224,0,-0.00700000,0.00500000,0.99700000,-0.13000000,0.11000000,0.10000000,0.05000000,0.29000000,-0.00000000
225,0,-0.00200000,-0.00100000,1.00300000,0.09000000,-0.18000000,-0.20000000,0.05000000,0.29000000,-0.00000000
226,0,-0.00200000,-0.00200000,1.00000000,0.02000000,-0.27000000,0.03000000,0.05000000,0.28000000,-0.00000000
227,0,-0.00600000,0.00300000,1.00200000,0.06000000,0.04000000,0.18000000,0.05000000,0.29000000,-0.00000000
228,0,-0.01300000,-0.00000000,1.00100000,0.04000000,-0.00000000,-0.24000000,0.05000000,0.29000000,-0.00000000
229,0,-0.00500000,0.00300000,0.99700000,-0.15000000,-0.02000000,-0.03000000,0.04000000,0.29000000,-0.00000000
230,0,-0.00400000,0.00300000,0.99800000,-0.27000000,0.15000000,-0.14000000,0.04000000,0.29000000,-0.00000000
231,0,-0.01000000,-0.00500000,1.00400000,0.27000000,-0.23000000,-0.29000000,0.04000000,0.29000000,-0.00000000
232,0,-0.00300000,-0.00100000,1.00100000,0.14000000,-0.08000000,0.28000000,0.04000000,0.29000000,-0.00000000
233,0,-0.00700000,0.00200000,1.00100000,-0.12000000,-0.07000000,0.17000000,0.04000000,0.29000000,-0.00000000
234,0,-0.00500000,-0.00200000,0.99900000,0.18000000,-0.04000000,0.12000000,0.04000000,0.29000000,-0.00000000
235,0,-0.00400000,0.00300000,0.99900000,0.24000000,0.01000000,0.18000000,0.04000000,0.29000000,-0.00000000
236,0,-0.00600000,0.00100000,1.00100000,0.07000000,-0.13000000,0.22000000,0.05000000,0.29000000,-0.00000000
237,0,-0.00200000,0.00100000,0.99900000,-0.16000000,0.24000000,0.04000000,0.05000000,0.29000000,-0.00000000
238,0,-0.00700000,0.00200000,0.99500000,-0.03000000,-0.12000000,0.08000000,0.04000000,0.29000000,-0.00000000
239,0,-0.00300000,0.00200000,0.99500000,-0.05000000,-0.03000000,0.19000000,0.05000000,0.29000000,0.00000000
240,0,-0.00100000,-0.00100000,0.99800000,-0.11000000,0.14000000,0.07000000,0.05000000,0.29000000,-0.00000000
241,0,-0.00000000,0.00300000,1.00100000,-0.09000000,-0.15000000,-0.05000000,0.05000000,0.28000000,-0.00000000
242,0,-0.00800000,0.00200000,1.00000000,0.11000000,-0.31000000,-0.14000000,0.05000000,0.28000000,-0.00000000
243,0,-0.00700000,0.00000000,1.00000000,0.04000000,-0.16000000,0.16000000,0.05000000,0.29000000,-0.00000000
244,0,-0.00400000,-0.00300000,1.00200000,-0.16000000,0.07000000,0.05000000,0.05000000,0.29000000,-0.00000000
245,0,-0.00400000,-0.00200000,1.00000000,0.18000000,0.33000000,0.15000000,0.05000000,0.29000000,-0.00000000
246,0,-0.00400000,0.00500000,1.00100000,0.12000000,-0.08000000,0.00000000,0.05000000,0.29000000,-0.00000000
247,0,-0.00900000,0.00100000,1.00200000,0.04000000,0.08000000,0.09000000,0.05000000,0.29000000,-0.00000000
248,0,-0.00800000,0.00200000,1.00000000,-0.05000000,0.10000000,0.03000000,0.05000000,0.29000000,-0.00000000
249,0,-0.00400000,-0.00100000,0.99600000,0.15000000,-0.23000000,0.18000000,0.05000000,0.29000000,-0.00000000
250,0,-0.00300000,-0.00000000,0.99800000,0.04000000,-0.12000000,-0.06000000,0.05000000,0.29000000,-0.00000000
251,0,-0.00600000,-0.00100000,0.99800000,-0.02000000,0.03000000,0.04000000,0.05000000,0.29000000,-0.00000000
252,0,-0.00700000,0.00300000,1.00200000,0.12000000,-0.05000000,0.02000000,0.05000000,0.29000000,-0.00000000
253,0,-0.00700000,0.00200000,0.99700000,-0.12000000,0.11000000,0.32000000,0.05000000,0.29000000,-0.00000000
254,0,0.00200000,0.00100000,1.00000000,0.01000000,-0.22000000,0.22000000,0.05000000,0.29000000,-0.00000000
255,0,-0.00100000,0.00500000,1.00100000,-0.07000000,0.07000000,-0.02000000,0.05000000,0.29000000,0.00000000
256,0,-0.00500000,-0.00100000,1.00600000,0.06000000,0.03000000,-0.09000000,0.05000000,0.28000000,0.00000000
257,0,-0.00600000,0.00200000,1.00300000,0.08000000,0.08000000,0.19000000,0.05000000,0.28000000,0.00000000
258,0,-0.00700000,-0.00500000,1.00000000,0.01000000,-0.04000000,0.04000000,0.05000000,0.28000000,0.00000000
259,0,-0.01200000,-0.00000000,0.99900000,-0.04000000,-0.09000000,-0.12000000,0.05000000,0.28000000,0.00000000
260,0,-0.00700000,-0.00000000,1.00300000,-0.28000000,0.41000000,-0.13000000,0.05000000,0.28000000,0.00000000
261,0,-0.00100000,-0.00000000,0.99900000,-0.20000000,0.02000000,0.08000000,0.05000000,0.28000000,0.00000000
262,0,-0.00500000,0.00200000,1.00300000,0.08000000,-0.12000000,0.14000000,0.05000000,0.28000000,0.00000000
263,0,-0.00600000,0.00300000,1.00300000,0.02000000,-0.05000000,-0.01000000,0.05000000,0.28000000,0.00000000
264,0,-0.00100000,-0.00300000,1.00200000,0.06000000,-0.02000000,-0.06000000,0.05000000,0.28000000,0.00000000
265,0,-0.00300000,0.00300000,1.00100000,-0.04000000,-0.14000000,0.10000000,0.04000000,0.28000000,0.00000000
266,0,-0.00700000,-0.00100000,0.99800000,-0.13000000,0.07000000,0.34000000,0.04000000,0.29000000,0.00000000
267,0,-0.00500000,-0.00100000,1.00000000,0.04000000,-0.06000000,-0.15000000,0.04000000,0.29000000,0.00000000
268,0,-0.00300000,-0.00200000,1.00500000,-0.07000000,-0.14000000,-0.01000000,0.04000000,0.29000000,0.00000000
269,0,0.00100000,-0.00100000,1.00100000,-0.04000000,0.08000000,-0.29000000,0.04000000,0.29000000,0.00000000
270,0,-0.00200000,-0.00200000,1.00200000,-0.00000000,-0.05000000,-0.08000000,0.04000000,0.29000000,0.00000000
271,0,-0.00500000,0.00500000,0.99900000,0.03000000,0.01000000,0.02000000,0.05000000,0.29000000,0.00000000
272,0,-0.00600000,-0.00100000,0.99900000,-0.04000000,-0.05000000,0.07000000,0.05000000,0.29000000,0.00000000
273,0,-0.00600000,-0.00100000,1.00300000,-0.06000000,0.03000000,0.18000000,0.05000000,0.29000000,0.00000000
274,0,-0.00500000,0.00100000,1.00200000,-0.16000000,-0.11000000,0.48000000,0.05000000,0.29000000,0.00000000
275,0,-0.00800000,0.00300000,1.00300000,0.05000000,-0.17000000,-0.15000000,0.05000000,0.29000000,0.00000000
276,0,-0.00200000,0.00100000,1.00000000,0.04000000,-0.08000000,-0.06000000,0.05000000,0.29000000,0.00000000
277,0,-0.00900000,-0.00300000,0.99900000,0.12000000,-0.11000000,-0.13000000,0.05000000,0.29000000,0.00000000
278,0,-0.00100000,0.00100000,0.99900000,-0.10000000,0.07000000,0.05000000,0.05000000,0.29000000,0.00000000
279,0,-0.00400000,0.00300000,0.99800000,0.07000000,0.08000000,-0.17000000,0.05000000,0.28000000,0.00000000
280,0,-0.00600000,0.00100000,1.00500000,0.06000000,0.06000000,-0.11000000,0.05000000,0.28000000,0.00000000
281,0,-0.00300000,-0.00000000,0.99900000,0.33000000,-0.02000000,-0.15000000,0.05000000,0.29000000,0.00000000
282,0,-0.00600000,0.00300000,1.00100000,-0.10000000,-0.21000000,-0.06000000,0.05000000,0.28000000,-0.00000000
283,0,-0.01100000,0.00000000,1.00000000,-0.15000000,0.11000000,0.18000000,0.05000000,0.28000000,-0.00000000
284,0,-0.00300000,0.00400000,1.00400000,-0.06000000,-0.06000000,-0.05000000,0.05000000,0.28000000,-0.00000000
285,0,-0.00500000,0.00300000,1.00400000,-0.10000000,-0.05000000,-0.07000000,0.05000000,0.29000000,-0.00000000
286,0,-0.00500000,0.00000000,1.00100000,-0.04000000,0.12000000,-0.19000000,0.05000000,0.28000000,-0.00000000
287,0,-0.00700000,-0.00100000,1.00000000,-0.06000000,-0.06000000,-0.13000000,0.05000000,0.29000000,-0.00000000
288,0,-0.00900000,-0.00400000,0.99800000,0.02000000,-0.11000000,0.03000000,0.05000000,0.29000000,-0.00000000
289,0,-0.01000000,0.00100000,0.99900000,0.03000000,0.07000000,0.10000000,0.05000000,0.29000000,-0.00000000
290,0,-0.00300000,0.00400000,0.99900000,0.06000000,-0.08000000,-0.10000000,0.05000000,0.28000000,-0.00000000
291,0,-0.00900000,0.00200000,1.00000000,-0.09000000,0.11000000,-0.14000000,0.05000000,0.29000000,-0.00000000
292,0,-0.00700000,0.00000000,0.99800000,-0.07000000,0.03000000,-0.11000000,0.05000000,0.29000000,-0.00000000
293,0,-0.00300000,-0.00100000,1.00300000,0.09000000,0.22000000,0.01000000,0.05000000,0.29000000,-0.00000000
294,0,-0.00200000,0.00300000,0.99800000,-0.02000000,-0.09000000,-0.12000000,0.05000000,0.29000000,-0.00000000
295,0,-0.00700000,0.00100000,1.00800000,-0.10000000,-0.13000000,0.21000000,0.05000000,0.29000000,-0.00000000
296,0,-0.00700000,-0.00200000,1.00700000,0.06000000,0.01000000,-0.15000000,0.05000000,0.29000000,-0.00000000
297,0,-0.00900000,0.00200000,0.99800000,-0.11000000,-0.13000000,-0.32000000,0.05000000,0.28000000,-0.00000000
298,0,-0.00500000,0.00100000,0.99900000,0.23000000,-0.10000000,-0.08000000,0.05000000,0.28000000,-0.00000000
299,0,-0.00500000,0.00200000,0.99700000,-0.00000000,-0.16000000,-0.18000000,0.05000000,0.28000000,-0.00000000
300,0,-0.00400000,0.00300000,1.00300000,0.00000000,-0.20000000,-0.11000000,0.05000000,0.28000000,-0.00000000
301,0,-0.00700000,0.00200000,0.99800000,0.03000000,0.01000000,0.03000000,0.05000000,0.28000000,-0.00000000
302,0,-0.00600000,-0.00200000,1.00000000,-0.08000000,-0.32000000,0.06000000,0.05000000,0.28000000,-0.00000000
303,0,-0.00500000,0.00100000,1.00300000,0.24000000,0.24000000,0.09000000,0.05000000,0.28000000,-0.00000000
304,0,-0.00500000,0.00200000,1.00200000,0.35000000,0.05000000,-0.05000000,0.05000000,0.28000000,-0.00000000
305,0,-0.00700000,0.00100000,1.00100000,0.20000000,-0.07000000,-0.03000000,0.05000000,0.28000000,-0.00000000
306,0,-0.00400000,0.00000000,1.00200000,0.21000000,0.27000000,0.11000000,0.05000000,0.28000000,-0.00000000
307,0,-0.00200000,0.00100000,1.00100000,0.19000000,-0.18000000,0.14000000,0.05000000,0.28000000,-0.00000000
308,0,-0.00600000,-0.00100000,0.99800000,0.05000000,0.05000000,0.09000000,0.05000000,0.28000000,-0.00000000
309,0,-0.00200000,-0.00100000,1.00200000,0.16000000,0.03000000,-0.33000000,0.05000000,0.29000000,-0.00000000
310,0,-0.00300000,0.00300000,1.00400000,0.20000000,-0.06000000,-0.17000000,0.05000000,0.28000000,-0.01000000
311,0,-0.00800000,0.00100000,1.00100000,0.10000000,0.17000000,-0.02000000,0.05000000,0.28000000,-0.01000000
312,0,-0.00000000,0.00500000,1.00400000,-0.07000000,-0.17000000,-0.08000000,0.05000000,0.29000000,-0.01000000
313,0,-0.00700000,0.00100000,1.00000000,0.05000000,-0.06000000,0.05000000,0.05000000,0.29000000,-0.01000000
314,0,-0.00500000,0.00100000,1.00100000,0.06000000,-0.01000000,-0.12000000,0.05000000,0.29000000,-0.01000000
315,0,-0.00700000,-0.00000000,1.00000000,0.27000000,-0.07000000,-0.06000000,0.05000000,0.29000000,-0.01000000
316,0,-0.00500000,0.00500000,1.00300000,-0.13000000,0.05000000,-0.06000000,0.05000000,0.29000000,-0.01000000
317,0,-0.00500000,-0.00000000,0.99900000,-0.29000000,-0.11000000,0.05000000,0.05000000,0.29000000,-0.01000000
318,0,-0.00000000,-0.00100000,1.00000000,-0.13000000,0.08000000,0.16000000,0.05000000,0.29000000,-0.01000000
319,0,-0.00900000,0.00500000,0.99600000,0.09000000,0.08000000,-0.00000000,0.05000000,0.29000000,-0.01000000
320,0,-0.00400000,0.00200000,0.99900000,0.23000000,0.10000000,0.04000000,0.05000000,0.29000000,-0.01000000
321,0,-0.00400000,0.00400000,1.00000000,0.04000000,-0.02000000,0.09000000,0.06000000,0.28000000,-0.01000000
322,0,0.00100000,0.00100000,0.99900000,0.15000000,0.12000000,-0.30000000,0.06000000,0.28000000,-0.01000000
323,0,-0.00300000,-0.00100000,1.00200000,-0.06000000,0.07000000,0.04000000,0.06000000,0.28000000,-0.01000000
324,0,-0.00900000,-0.00400000,1.00100000,-0.01000000,0.23000000,0.30000000,0.06000000,0.29000000,-0.01000000
325,0,-0.00400000,0.00500000,0.99700000,0.20000000,-0.03000000,0.12000000,0.06000000,0.29000000,-0.01000000
326,0,0.00100000,0.00400000,1.00100000,-0.13000000,0.02000000,-0.09000000,0.06000000,0.28000000,-0.01000000
327,0,-0.00500000,0.00200000,1.00100000,0.01000000,-0.03000000,-0.03000000,0.06000000,0.28000000,-0.01000000
328,0,-0.00800000,0.00100000,1.00100000,-0.08000000,-0.30000000,0.17000000,0.06000000,0.28000000,-0.01000000
329,0,-0.00000000,0.00300000,0.99900000,-0.24000000,0.02000000,-0.11000000,0.06000000,0.28000000,-0.01000000
330,0,-0.00400000,0.00100000,0.99900000,0.17000000,0.09000000,-0.26000000,0.06000000,0.28000000,-0.01000000
331,0,-0.00600000,0.00300000,1.00100000,0.10000000,0.03000000,-0.15000000,0.06000000,0.29000000,-0.01000000
332,0,-0.00200000,0.00400000,0.99900000,0.06000000,0.06000000,0.04000000,0.06000000,0.29000000,-0.01000000
333,0,-0.00300000,0.00400000,0.99400000,-0.09000000,0.29000000,0.04000000,0.06000000,0.28000000,-0.01000000
334,0,-0.00500000,0.00300000,1.00000000,0.12000000,-0.09000000,-0.04000000,0.06000000,0.28000000,-0.01000000
335,0,-0.00400000,-0.00100000,1.00200000,-0.12000000,0.17000000,0.03000000,0.06000000,0.28000000,-0.01000000
336,0,-0.00500000,0.00400000,1.00000000,0.03000000,-0.09000000,0.16000000,0.06000000,0.28000000,-0.01000000
337,0,-0.00800000,-0.00500000,1.00000000,-0.11000000,0.20000000,0.03000000,0.06000000,0.29000000,-0.01000000
338,0,-0.00400000,0.00200000,0.99900000,0.02000000,-0.08000000,-0.08000000,0.06000000,0.29000000,-0.01000000
339,0,-0.00400000,-0.00100000,1.00300000,-0.24000000,0.34000000,0.05000000,0.05000000,0.29000000,-0.01000000
340,0,-0.00700000,-0.00100000,1.00100000,-0.01000000,0.06000000,0.14000000,0.05000000,0.29000000,-0.01000000
341,0,0.00000000,0.00200000,0.99800000,0.03000000,0.31000000,0.30000000,0.05000000,0.29000000,-0.01000000
342,0,-0.00400000,0.00300000,1.00000000,-0.05000000,0.13000000,-0.11000000,0.05000000,0.29000000,-0.01000000
343,0,-0.00300000,0.00000000,0.99900000,0.01000000,-0.26000000,0.31000000,0.05000000,0.29000000,-0.01000000
344,0,-0.00700000,-0.00100000,0.99900000,-0.13000000,-0.04000000,-0.09000000,0.05000000,0.29000000,-0.01000000
345,0,-0.00700000,0.00400000,0.99700000,0.10000000,0.10000000,0.10000000,0.05000000,0.29000000,-0.01000000
346,0,-0.00500000,0.00100000,1.00000000,0.08000000,-0.09000000,0.06000000,0.05000000,0.29000000,-0.01000000
347,0,-0.00900000,-0.00000000,1.00100000,0.02000000,0.14000000,-0.18000000,0.05000000,0.29000000,-0.01000000
348,0,-0.00700000,-0.00300000,1.00000000,0.13000000,-0.04000000,0.03000000,0.05000000,0.29000000,-0.01000000
349,0,-0.00600000,0.00200000,1.00100000,0.09000000,-0.07000000,-0.29000000,0.05000000,0.29000000,-0.01000000
350,0,-0.00700000,-0.00200000,1.00200000,0.04000000,0.07000000,-0.14000000,0.05000000,0.29000000,-0.01000000
351,0,-0.01100000,0.00000000,1.00200000,-0.10000000,-0.12000000,-0.22000000,0.05000000,0.29000000,-0.01000000
352,0,-0.00600000,-0.00200000,1.00200000,-0.07000000,0.02000000,0.03000000,0.05000000,0.29000000,-0.01000000
353,0,0.00100000,0.00200000,1.00200000,0.04000000,0.24000000,-0.13000000,0.05000000,0.29000000,-0.01000000
354,0,-0.01000000,0.00100000,1.00100000,0.06000000,-0.05000000,-0.04000000,0.05000000,0.29000000,-0.01000000
355,0,-0.00400000,0.00100000,1.00000000,-0.04000000,0.05000000,-0.00000000,0.05000000,0.29000000,-0.01000000
356,0,-0.00200000,0.00000000,1.00100000,-0.13000000,0.16000000,-0.25000000,0.05000000,0.29000000,-0.01000000
357,0,-0.00900000,-0.00100000,0.99900000,-0.09000000,0.11000000,-0.21000000,0.05000000,0.30000000,-0.01000000
358,0,-0.00400000,0.00200000,0.99900000,-0.10000000,0.18000000,0.14000000,0.05000000,0.30000000,-0.01000000
359,0,-0.00600000,0.00300000,0.99900000,0.06000000,-0.17000000,-0.10000000,0.05000000,0.30000000,-0.01000000
360,0,-0.00400000,-0.00000000,1.00300000,0.07000000,-0.04000000,-0.03000000,0.05000000,0.30000000,-0.01000000
361,0,0.00200000,0.00100000,0.99900000,0.09000000,-0.13000000,0.11000000,0.04000000,0.30000000,-0.01000000
362,0,-0.00700000,0.00300000,1.00000000,0.05000000,0.04000000,0.03000000,0.05000000,0.30000000,-0.01000000
363,0,-0.00600000,0.00100000,1.00300000,-0.00000000,-0.22000000,0.00000000,0.05000000,0.29000000,-0.01000000
364,0,-0.00300000,0.00400000,1.00100000,-0.13000000,0.17000000,0.17000000,0.05000000,0.29000000,-0.01000000
365,0,-0.00900000,-0.00100000,1.00200000,-0.16000000,0.04000000,0.15000000,0.04000000,0.29000000,-0.01000000
366,0,-0.00700000,-0.00300000,1.00300000,-0.00000000,-0.14000000,-0.03000000,0.04000000,0.29000000,-0.01000000
367,0,-0.00700000,-0.00300000,0.99900000,-0.17000000,-0.08000000,-0.18000000,0.04000000,0.29000000,-0.01000000
368,0,-0.00900000,-0.00000000,1.00200000,0.06000000,-0.14000000,0.09000000,0.04000000,0.29000000,-0.01000000
369,0,-0.00500000,0.00200000,0.99900000,-0.13000000,0.20000000,-0.06000000,0.04000000,0.29000000,-0.01000000
370,0,-0.00300000,-0.00000000,1.00000000,0.07000000,0.11000000,-0.20000000,0.04000000,0.29000000,-0.01000000
371,0,-0.00400000,-0.00100000,1.00200000,0.02000000,0.06000000,-0.12000000,0.04000000,0.29000000,-0.01000000
372,0,-0.00700000,0.00400000,1.00000000,0.06000000,0.29000000,0.11000000,0.04000000,0.29000000,-0.01000000
373,0,-0.00200000,0.00400000,0.99900000,-0.19000000,0.10000000,-0.22000000,0.04000000,0.30000000,-0.01000000
374,0,0.00100000,0.00400000,0.99900000,0.19000000,0.21000000,0.22000000,0.05000000,0.30000000,-0.01000000
375,0,-0.00500000,-0.00200000,1.00200000,0.24000000,0.07000000,0.15000000,0.05000000,0.30000000,-0.01000000
376,0,-0.00000000,-0.00400000,0.99900000,0.04000000,-0.01000000,-0.09000000,0.05000000,0.30000000,-0.01000000
377,0,-0.01300000,-0.00100000,1.00200000,-0.11000000,-0.20000000,-0.05000000,0.05000000,0.30000000,-0.01000000
378,0,-0.00900000,0.00200000,0.99800000,-0.10000000,0.15000000,-0.14000000,0.05000000,0.30000000,-0.01000000
379,0,-0.00400000,-0.00100000,1.00000000,0.07000000,0.16000000,-0.26000000,0.05000000,0.30000000,-0.01000000
380,0,-0.00500000,0.00700000,0.99900000,-0.07000000,-0.05000000,-0.00000000,0.05000000,0.30000000,-0.01000000
381,0,-0.00600000,0.00100000,1.00000000,-0.04000000,-0.03000000,0.25000000,0.05000000,0.30000000,-0.01000000
382,0,-0.00300000,0.00500000,0.99800000,-0.20000000,0.05000000,-0.13000000,0.05000000,0.30000000,-0.01000000
383,0,-0.00700000,0.00100000,0.99600000,0.15000000,0.01000000,0.12000000,0.05000000,0.30000000,-0.01000000
384,0,-0.00500000,-0.00100000,0.99800000,-0.08000000,0.06000000,-0.03000000,0.05000000,0.30000000,-0.01000000
385,0,-0.00400000,-0.00100000,0.99700000,-0.18000000,-0.04000000,-0.13000000,0.05000000,0.30000000,-0.01000000
386,0,-0.00400000,0.00500000,0.99600000,-0.14000000,-0.04000000,-0.03000000,0.05000000,0.30000000,-0.01000000
387,0,-0.00800000,-0.00100000,1.00000000,-0.06000000,0.37000000,-0.07000000,0.05000000,0.30000000,-0.01000000
388,0,-0.00600000,0.00100000,0.99900000,0.00000000,0.19000000,-0.06000000,0.05000000,0.30000000,-0.01000000
389,0,-0.01000000,-0.00100000,0.99500000,-0.25000000,0.35000000,-0.00000000,0.05000000,0.30000000,-0.01000000
390,0,-0.00700000,-0.00100000,1.00200000,-0.19000000,-0.01000000,-0.06000000,0.05000000,0.30000000,-0.01000000
391,0,-0.00300000,-0.00100000,0.99900000,0.02000000,0.28000000,0.21000000,0.05000000,0.30000000,-0.01000000
392,0,-0.00400000,0.00000000,0.99800000,-0.11000000,-0.17000000,-0.04000000,0.05000000,0.30000000,-0.01000000
393,0,-0.00900000,-0.00300000,1.00200000,-0.05000000,-0.24000000,0.06000000,0.05000000,0.30000000,-0.01000000
394,0,-0.00600000,-0.00500000,1.00300000,-0.04000000,-0.20000000,0.06000000,0.05000000,0.30000000,-0.01000000
395,0,-0.00700000,-0.00100000,0.99500000,-0.19000000,-0.24000000,0.16000000,0.05000000,0.30000000,-0.01000000
396,0,-0.00200000,0.00300000,1.00100000,-0.09000000,0.02000000,0.10000000,0.05000000,0.30000000,-0.01000000
397,0,-0.00600000,0.00000000,1.00300000,0.09000000,-0.08000000,0.00000000,0.05000000,0.30000000,-0.01000000
398,0,-0.00100000,0.00000000,0.99900000,-0.19000000,-0.06000000,-0.09000000,0.05000000,0.30000000,-0.01000000
399,0,-0.00400000,0.00100000,0.99700000,0.00000000,0.18000000,0.08000000,0.05000000,0.30000000,-0.01000000
400,0,-0.00200000,-0.00200000,1.00300000,0.02000000,-0.12000000,-0.07000000,0.05000000,0.30000000,-0.01000000
401,0,-0.00400000,0.00300000,1.00200000,0.11000000,0.03000000,0.04000000,0.05000000,0.30000000,-0.02000000
402,0,-0.00500000,-0.00100000,0.99900000,0.20000000,-0.16000000,-0.21000000,0.05000000,0.30000000,-0.02000000
403,0,-0.00300000,0.00200000,0.99900000,0.14000000,0.21000000,0.07000000,0.05000000,0.30000000,-0.02000000
404,0,-0.00400000,0.00100000,0.99700000,0.09000000,0.26000000,0.04000000,0.05000000,0.30000000,-0.02000000
405,0,-0.01100000,-0.00100000,0.99900000,-0.08000000,-0.11000000,0.02000000,0.05000000,0.30000000,-0.02000000
406,0,-0.00600000,-0.00000000,1.00000000,0.03000000,0.18000000,-0.02000000,0.05000000,0.30000000,-0.02000000
407,0,-0.00800000,-0.00100000,0.99700000,0.11000000,-0.01000000,-0.08000000,0.05000000,0.30000000,-0.02000000
408,0,-0.00800000,0.00500000,1.00000000,-0.13000000,0.02000000,-0.13000000,0.05000000,0.30000000,-0.02000000
409,0,-0.00800000,-0.00200000,1.00000000,-0.01000000,-0.13000000,0.27000000,0.05000000,0.30000000,-0.02000000
410,0,-0.00500000,0.00300000,1.00100000,-0.15000000,0.16000000,-0.05000000,0.04000000,0.30000000,-0.02000000
411,0,-0.00800000,0.00400000,1.00200000,-0.10000000,-0.14000000,-0.21000000,0.04000000,0.30000000,-0.02000000
412,0,-0.00600000,0.00000000,1.00100000,0.02000000,0.10000000,-0.26000000,0.04000000,0.30000000,-0.02000000
413,0,-0.00500000,-0.00000000,0.99900000,-0.14000000,0.02000000,-0.10000000,0.05000000,0.30000000,-0.02000000
414,0,-0.00300000,0.00000000,0.99900000,0.12000000,-0.12000000,0.06000000,0.04000000,0.30000000,-0.02000000
415,0,-0.00400000,-0.00300000,1.00300000,-0.13000000,0.08000000,0.07000000,0.04000000,0.30000000,-0.02000000
416,0,-0.00400000,-0.00100000,1.00100000,0.02000000,0.08000000,-0.13000000,0.04000000,0.30000000,-0.02000000
417,0,-0.00700000,0.00500000,1.00000000,-0.09000000,-0.02000000,-0.07000000,0.04000000,0.30000000,-0.02000000
418,0,-0.00800000,-0.00600000,1.00700000,0.05000000,0.03000000,-0.09000000,0.05000000,0.30000000,-0.02000000
419,0,-0.00600000,0.00100000,0.99700000,0.01000000,0.12000000,-0.03000000,0.04000000,0.30000000,-0.02000000
420,0,-0.00800000,-0.00200000,1.00200000,0.18000000,-0.03000000,0.01000000,0.04000000,0.30000000,-0.02000000
421,0,-0.00200000,0.00500000,1.00000000,-0.05000000,-0.03000000,0.15000000,0.05000000,0.30000000,-0.02000000
422,0,0.00000000,-0.00000000,1.00100000,0.05000000,0.14000000,0.08000000,0.04000000,0.30000000,-0.02000000
423,0,-0.00300000,0.00300000,0.99700000,-0.09000000,-0.24000000,-0.26000000,0.04000000,0.30000000,-0.02000000
424,0,-0.00500000,0.00200000,1.00100000,-0.02000000,-0.28000000,0.23000000,0.04000000,0.30000000,-0.02000000
425,0,-0.00400000,-0.00200000,0.99900000,0.27000000,0.16000000,-0.12000000,0.04000000,0.30000000,-0.02000000
426,0,-0.00900000,0.00500000,1.00200000,0.28000000,0.39000000,-0.00000000,0.04000000,0.30000000,-0.02000000
427,0,-0.00600000,-0.00500000,1.00100000,-0.16000000,-0.12000000,0.01000000,0.04000000,0.30000000,-0.02000000
428,0,-0.00500000,0.00600000,1.00200000,-0.10000000,0.00000000,0.12000000,0.04000000,0.30000000,-0.02000000
429,0,-0.00500000,-0.00000000,0.99900000,-0.11000000,0.10000000,0.10000000,0.04000000,0.30000000,-0.02000000
430,0,-0.00200000,-0.00100000,1.00400000,-0.05000000,0.14000000,-0.04000000,0.04000000,0.30000000,-0.02000000
431,0,-0.00800000,0.00000000,1.00000000,-0.05000000,-0.10000000,-0.05000000,0.04000000,0.30000000,-0.02000000
432,0,-0.00400000,-0.00300000,1.00300000,-0.00000000,0.00000000,0.08000000,0.04000000,0.30000000,-0.02000000
433,0,-0.00300000,-0.00300000,0.99900000,-0.07000000,0.10000000,-0.12000000,0.05000000,0.30000000,-0.02000000
434,0,-0.00400000,-0.00400000,1.00200000,0.33000000,0.08000000,-0.08000000,0.05000000,0.30000000,-0.02000000
435,0,-0.00300000,0.00300000,1.00100000,0.08000000,-0.06000000,0.03000000,0.05000000,0.30000000,-0.02000000
436,0,-0.00500000,-0.00100000,1.00000000,-0.11000000,0.21000000,0.16000000,0.05000000,0.30000000,-0.02000000
437,0,-0.00600000,0.00300000,1.00300000,0.09000000,-0.14000000,0.08000000,0.05000000,0.30000000,-0.02000000
438,0,-0.00800000,-0.00300000,1.00400000,0.09000000,0.05000000,-0.11000000,0.05000000,0.30000000,-0.02000000
439,0,-0.00800000,-0.00300000,1.00000000,0.12000000,-0.08000000,-0.26000000,0.04000000,0.30000000,-0.02000000
440,0,-0.00600000,0.00000000,1.00200000,-0.07000000,-0.19000000,0.16000000,0.05000000,0.30000000,-0.02000000
441,0,-0.00500000,0.00300000,1.00400000,0.12000000,0.09000000,-0.20000000,0.04000000,0.30000000,-0.02000000
442,0,-0.00400000,0.00400000,0.99600000,0.19000000,0.10000000,0.12000000,0.05000000,0.30000000,-0.02000000
443,0,-0.00300000,0.00400000,1.00300000,0.04000000,0.03000000,0.09000000,0.05000000,0.29000000,-0.02000000
444,0,-0.00400000,-0.00200000,1.00000000,0.01000000,-0.04000000,0.11000000,0.05000000,0.29000000,-0.02000000
445,0,-0.00600000,0.00100000,1.00400000,0.03000000,0.13000000,0.21000000,0.05000000,0.29000000,-0.02000000
446,0,-0.00800000,0.00300000,1.00300000,0.11000000,0.03000000,-0.02000000,0.05000000,0.30000000,-0.02000000
447,0,-0.00800000,0.00300000,0.99800000,0.09000000,0.08000000,-0.08000000,0.05000000,0.30000000,-0.02000000
448,0,-0.00700000,-0.00200000,1.00300000,0.08000000,0.39000000,-0.07000000,0.05000000,0.30000000,-0.02000000
449,0,-0.00800000,-0.00000000,1.00400000,0.07000000,0.07000000,-0.04000000,0.05000000,0.30000000,-0.02000000
450,0,-0.00900000,0.00200000,1.00200000,0.12000000,0.01000000,-0.03000000,0.05000000,0.30000000,-0.02000000
451,0,-0.00300000,-0.00100000,1.00500000,0.16000000,0.20000000,-0.08000000,0.05000000,0.30000000,-0.02000000
452,0,-0.00800000,0.00500000,1.00100000,-0.03000000,-0.07000000,0.11000000,0.05000000,0.30000000,-0.02000000
453,0,0.00000000,-0.00000000,0.99600000,0.03000000,0.04000000,-0.20000000,0.05000000,0.30000000,-0.02000000
454,0,-0.00600000,0.00000000,1.00000000,-0.15000000,0.06000000,0.02000000,0.04000000,0.30000000,-0.02000000
455,0,-0.00700000,0.00700000,0.99900000,-0.12000000,-0.12000000,0.08000000,0.04000000,0.30000000,-0.02000000
456,0,0.00300000,-0.00700000,1.00200000,-0.27000000,0.08000000,0.05000000,0.04000000,0.30000000,-0.02000000
457,0,-0.00300000,0.00200000,1.00000000,-0.26000000,-0.09000000,-0.07000000,0.04000000,0.30000000,-0.02000000
458,0,-0.00300000,-0.00200000,0.99800000,-0.02000000,0.08000000,-0.05000000,0.04000000,0.30000000,-0.02000000
459,0,-0.00300000,0.00200000,0.99700000,-0.01000000,-0.04000000,-0.04000000,0.04000000,0.30000000,-0.02000000
460,0,-0.00400000,0.00100000,0.99900000,-0.13000000,-0.03000000,0.36000000,0.04000000,0.30000000,-0.02000000
461,0,-0.00400000,0.00200000,1.00200000,0.24000000,0.07000000,-0.12000000,0.04000000,0.30000000,-0.02000000
462,0,-0.00200000,-0.00100000,1.00100000,0.13000000,0.20000000,-0.04000000,0.04000000,0.30000000,-0.02000000
463,0,-0.00400000,-0.00100000,0.99900000,-0.00000000,0.00000000,-0.06000000,0.04000000,0.30000000,-0.02000000
464,0,-0.00500000,0.00600000,1.00000000,-0.03000000,0.16000000,0.03000000,0.04000000,0.30000000,-0.02000000
465,0,-0.01300000,0.00000000,1.00200000,-0.03000000,0.08000000,0.04000000,0.04000000,0.30000000,-0.02000000
466,0,-0.00500000,-0.00600000,0.99900000,0.08000000,-0.10000000,-0.11000000,0.04000000,0.30000000,-0.02000000
467,0,-0.00300000,0.00500000,1.00200000,0.02000000,-0.23000000,-0.01000000,0.04000000,0.30000000,-0.02000000
468,0,-0.00300000,0.00500000,1.00400000,-0.06000000,-0.13000000,-0.08000000,0.04000000,0.30000000,-0.02000000
469,0,-0.00300000,-0.00100000,1.00100000,0.16000000,0.15000000,-0.03000000,0.04000000,0.30000000,-0.02000000
470,0,-0.00800000,0.00000000,0.99600000,0.12000000,0.21000000,-0.12000000,0.04000000,0.30000000,-0.02000000
471,0,-0.00200000,0.00300000,0.99700000,-0.11000000,0.04000000,-0.03000000,0.04000000,0.30000000,-0.02000000
472,0,-0.00000000,-0.00000000,1.00100000,0.01000000,-0.04000000,0.11000000,0.04000000,0.30000000,-0.02000000
473,0,-0.00400000,0.00800000,0.99800000,-0.16000000,0.04000000,0.05000000,0.04000000,0.30000000,-0.02000000
474,0,-0.00600000,-0.00100000,0.99600000,0.14000000,0.03000000,-0.14000000,0.04000000,0.30000000,-0.02000000
475,0,-0.00800000,0.00300000,1.00000000,0.12000000,0.19000000,-0.03000000,0.04000000,0.30000000,-0.02000000
476,0,-0.01000000,0.00200000,0.99800000,-0.15000000,0.21000000,0.08000000,0.04000000,0.30000000,-0.02000000
477,0,-0.00300000,0.00300000,1.00400000,0.19000000,0.21000000,0.03000000,0.04000000,0.30000000,-0.02000000
478,0,-0.00600000,0.00500000,0.99800000,-0.16000000,-0.18000000,0.02000000,0.04000000,0.30000000,-0.02000000
479,0,-0.00400000,-0.00400000,1.00000000,0.00000000,-0.04000000,0.17000000,0.04000000,0.30000000,-0.02000000
480,0,-0.00100000,-0.00000000,1.00000000,-0.13000000,-0.12000000,0.14000000,0.04000000,0.30000000,-0.02000000
481,0,-0.00600000,0.00100000,0.99900000,-0.13000000,-0.23000000,-0.06000000,0.04000000,0.30000000,-0.02000000
482,0,-0.00800000,-0.00100000,1.00100000,-0.05000000,-0.12000000,0.03000000,0.04000000,0.30000000,-0.02000000
483,0,-0.00500000,0.00400000,0.99800000,0.13000000,-0.04000000,0.23000000,0.04000000,0.30000000,-0.02000000
484,0,-0.00800000,0.00400000,0.99900000,0.03000000,0.10000000,-0.09000000,0.04000000,0.30000000,-0.02000000
485,0,-0.00500000,0.00200000,1.00400000,-0.13000000,0.11000000,-0.03000000,0.04000000,0.30000000,-0.02000000
486,0,-0.00700000,0.00400000,1.00200000,0.18000000,-0.00000000,0.08000000,0.04000000,0.30000000,-0.02000000
487,0,-0.00500000,-0.00100000,1.00000000,-0.04000000,0.14000000,0.18000000,0.04000000,0.30000000,-0.02000000
488,0,-0.00400000,-0.00200000,1.00100000,-0.14000000,-0.04000000,-0.03000000,0.04000000,0.30000000,-0.02000000
489,0,-0.01200000,-0.00100000,0.99800000,-0.04000000,-0.04000000,0.10000000,0.04000000,0.30000000,-0.02000000
490,0,-0.00800000,0.00600000,1.00000000,-0.07000000,-0.14000000,0.02000000,0.04000000,0.30000000,-0.02000000
491,0,0.00400000,-0.00200000,1.00100000,-0.01000000,-0.07000000,0.01000000,0.04000000,0.30000000,-0.02000000
492,0,-0.00800000,0.00200000,1.00200000,-0.22000000,-0.05000000,0.07000000,0.04000000,0.30000000,-0.02000000
493,0,-0.00500000,-0.00400000,1.00300000,0.02000000,0.03000000,-0.01000000,0.04000000,0.30000000,-0.02000000
494,0,-0.00100000,0.00000000,1.00100000,-0.18000000,0.11000000,-0.07000000,0.04000000,0.30000000,-0.02000000
495,0,-0.00300000,0.00600000,1.00100000,0.06000000,0.04000000,0.13000000,0.04000000,0.30000000,-0.02000000
496,0,-0.00600000,-0.00100000,1.00200000,-0.10000000,0.15000000,0.21000000,0.04000000,0.30000000,-0.02000000
497,0,-0.00300000,0.00200000,1.00300000,0.01000000,0.16000000,0.02000000,0.04000000,0.30000000,-0.02000000
498,0,-0.00800000,-0.00200000,0.99900000,-0.11000000,-0.18000000,-0.13000000,0.04000000,0.30000000,-0.02000000
499,0,0.00000000,0.00300000,1.00300000,-0.01000000,0.08000000,-0.01000000,0.04000000,0.30000000,-0.02000000
500,0,-0.00900000,-0.00300000,0.99700000,0.06000000,0.04000000,-0.06000000,0.04000000,0.30000000,-0.02000000
501,0,-0.00600000,0.00100000,0.99900000,0.28000000,-0.07000000,-0.01000000,0.04000000,0.30000000,-0.02000000
502,0,-0.00700000,0.00200000,0.99900000,0.04000000,-0.10000000,-0.06000000,0.05000000,0.30000000,-0.02000000
503,0,-0.00600000,0.00300000,0.99700000,0.03000000,0.07000000,0.04000000,0.05000000,0.30000000,-0.02000000
504,0,-0.00700000,0.00500000,1.00000000,-0.10000000,-0.15000000,0.06000000,0.04000000,0.30000000,-0.02000000
505,0,-0.00700000,0.00100000,0.99900000,0.02000000,-0.04000000,0.40000000,0.04000000,0.30000000,-0.02000000
506,0,-0.00400000,-0.00800000,1.00000000,0.02000000,0.15000000,-0.14000000,0.04000000,0.30000000,-0.02000000
507,0,-0.00900000,-0.00400000,0.99800000,-0.09000000,-0.08000000,-0.13000000,0.04000000,0.30000000,-0.02000000
508,0,-0.00800000,-0.00100000,1.00200000,0.16000000,-0.30000000,-0.12000000,0.04000000,0.30000000,-0.02000000
509,0,-0.00700000,-0.00100000,0.99900000,-0.24000000,0.21000000,-0.00000000,0.04000000,0.31000000,-0.02000000
510,0,-0.00500000,-0.00000000,1.00400000,0.27000000,0.02000000,-0.03000000,0.04000000,0.31000000,-0.02000000
511,0,-0.00100000,-0.00400000,0.99600000,0.09000000,-0.09000000,-0.18000000,0.04000000,0.30000000,-0.02000000
512,0,-0.00600000,0.00100000,1.00300000,-0.00000000,-0.17000000,-0.07000000,0.04000000,0.30000000,-0.02000000
513,0,-0.01000000,-0.00300000,1.00200000,-0.02000000,0.25000000,0.02000000,0.04000000,0.31000000,-0.02000000
514,0,-0.00700000,-0.00200000,1.00100000,0.15000000,-0.08000000,0.19000000,0.04000000,0.31000000,-0.02000000
515,0,0.00200000,-0.00200000,0.99800000,0.12000000,-0.03000000,0.25000000,0.04000000,0.31000000,-0.02000000
516,0,-0.00100000,-0.00400000,1.00200000,0.02000000,0.08000000,-0.03000000,0.04000000,0.31000000,-0.02000000
517,0,-0.00400000,-0.00000000,0.99800000,-0.09000000,-0.05000000,0.01000000,0.04000000,0.31000000,-0.02000000
518,0,-0.00700000,-0.00200000,0.99800000,-0.04000000,0.23000000,0.14000000,0.04000000,0.31000000,-0.02000000
519,0,-0.00500000,0.00200000,0.99800000,0.11000000,0.11000000,0.13000000,0.04000000,0.31000000,-0.02000000
520,0,-0.00400000,0.00400000,0.99700000,0.06000000,0.01000000,-0.17000000,0.04000000,0.31000000,-0.02000000
521,0,-0.00800000,0.00300000,1.00300000,-0.05000000,-0.24000000,-0.07000000,0.04000000,0.31000000,-0.02000000
522,0,-0.00000000,0.00200000,1.00200000,0.06000000,-0.13000000,-0.11000000,0.04000000,0.31000000,-0.02000000
523,0,-0.00400000,0.00100000,0.99700000,-0.02000000,-0.14000000,0.29000000,0.04000000,0.31000000,-0.02000000
524,0,0.00000000,-0.00200000,1.00000000,0.16000000,-0.08000000,-0.24000000,0.04000000,0.31000000,-0.02000000
525,0,-0.00500000,0.00400000,0.99800000,0.00000000,0.16000000,0.10000000,0.04000000,0.31000000,-0.02000000
526,0,-0.00700000,0.00600000,0.99900000,-0.09000000,0.16000000,-0.09000000,0.04000000,0.31000000,-0.02000000
527,0,-0.00900000,-0.00200000,1.00100000,0.19000000,0.18000000,0.29000000,0.04000000,0.31000000,-0.02000000
528,0,-0.01100000,0.00100000,1.00400000,-0.02000000,-0.06000000,0.11000000,0.04000000,0.31000000,-0.02000000
529,0,-0.00500000,-0.00300000,0.99800000,0.04000000,-0.09000000,0.08000000,0.04000000,0.31000000,-0.02000000
530,0,-0.00200000,0.00100000,0.99900000,0.19000000,-0.15000000,-0.15000000,0.04000000,0.31000000,-0.02000000
531,0,-0.00500000,-0.00100000,1.00200000,0.04000000,-0.13000000,0.10000000,0.04000000,0.31000000,-0.02000000
532,0,-0.00700000,0.00200000,1.00000000,-0.09000000,0.04000000,-0.18000000,0.04000000,0.31000000,-0.01000000
533,0,-0.00400000,0.00100000,0.99900000,-0.07000000,0.10000000,0.04000000,0.04000000,0.31000000,-0.02000000
534,0,-0.00500000,0.00300000,1.00200000,0.20000000,0.07000000,0.15000000,0.04000000,0.31000000,-0.02000000
535,0,-0.00900000,0.00200000,0.99900000,0.14000000,0.20000000,-0.09000000,0.04000000,0.31000000,-0.02000000
536,0,-0.00600000,0.00100000,1.00400000,0.20000000,-0.11000000,-0.08000000,0.04000000,0.31000000,-0.02000000
537,0,-0.00700000,-0.00100000,0.99800000,-0.10000000,-0.14000000,-0.02000000,0.04000000,0.31000000,-0.02000000
538,0,0.00100000,0.00200000,1.00100000,0.12000000,-0.18000000,0.05000000,0.04000000,0.30000000,-0.02000000
539,0,-0.00900000,0.00100000,1.00100000,-0.06000000,-0.23000000,0.10000000,0.04000000,0.30000000,-0.02000000
540,0,-0.00500000,-0.00500000,0.99900000,0.11000000,-0.17000000,-0.06000000,0.04000000,0.30000000,-0.02000000
541,0,-0.00500000,-0.00400000,0.99900000,0.06000000,-0.05000000,0.04000000,0.04000000,0.30000000,-0.02000000
542,0,0.00100000,-0.00300000,0.99800000,-0.15000000,-0.07000000,0.11000000,0.04000000,0.30000000,-0.02000000
543,0,-0.00600000,0.00300000,1.00200000,0.06000000,0.26000000,0.11000000,0.04000000,0.30000000,-0.02000000
544,0,0.00200000,-0.00100000,1.00100000,-0.04000000,0.21000000,0.02000000,0.05000000,0.30000000,-0.02000000
545,0,-0.00200000,0.00100000,0.99900000,0.04000000,-0.02000000,0.04000000,0.04000000,0.30000000,-0.02000000
546,0,-0.00600000,-0.00100000,1.00200000,0.10000000,0.15000000,0.09000000,0.04000000,0.30000000,-0.02000000
547,0,-0.00600000,-0.00300000,0.99900000,0.19000000,-0.06000000,0.16000000,0.04000000,0.31000000,-0.02000000
548,0,-0.00600000,-0.00100000,1.00300000,0.01000000,-0.04000000,-0.13000000,0.04000000,0.30000000,-0.02000000
549,0,-0.00500000,0.00200000,1.00100000,0.18000000,-0.02000000,-0.01000000,0.05000000,0.30000000,-0.02000000
550,0,-0.00100000,0.00500000,1.00000000,-0.07000000,0.04000000,0.12000000,0.05000000,0.30000000,-0.02000000
551,0,-0.00500000,-0.00100000,1.00100000,0.15000000,-0.06000000,0.12000000,0.05000000,0.30000000,-0.02000000
552,0,0.00300000,0.00100000,1.00100000,-0.06000000,0.08000000,0.02000000,0.04000000,0.30000000,-0.02000000
553,0,-0.00600000,-0.00300000,1.00100000,0.18000000,0.04000000,-0.09000000,0.04000000,0.30000000,-0.02000000
554,0,-0.00600000,0.00200000,0.99900000,0.00000000,-0.09000000,0.27000000,0.04000000,0.30000000,-0.02000000
555,0,-0.01100000,0.00300000,1.00000000,0.17000000,0.18000000,-0.17000000,0.05000000,0.30000000,-0.02000000
556,0,-0.01100000,0.00000000,1.00000000,0.05000000,-0.04000000,-0.06000000,0.05000000,0.30000000,-0.02000000
557,0,-0.00300000,0.00100000,0.99800000,-0.23000000,-0.05000000,0.21000000,0.05000000,0.30000000,-0.02000000
558,0,-0.01100000,0.00400000,0.99900000,-0.09000000,0.00000000,0.02000000,0.04000000,0.30000000,-0.02000000
559,0,-0.00200000,0.00000000,1.00100000,-0.07000000,-0.13000000,0.30000000,0.04000000,0.30000000,-0.01000000
560,0,-0.00400000,-0.00200000,1.00000000,0.07000000,0.01000000,-0.17000000,0.04000000,0.30000000,-0.02000000
561,0,0.00000000,0.00400000,0.99700000,0.09000000,0.07000000,0.04000000,0.05000000,0.30000000,-0.01000000
562,0,-0.00500000,0.00300000,0.99800000,-0.05000000,-0.11000000,0.11000000,0.05000000,0.30000000,-0.01000000
563,0,-0.00200000,0.00600000,0.99900000,-0.16000000,-0.18000000,-0.22000000,0.05000000,0.30000000,-0.01000000
564,0,-0.01100000,-0.00200000,0.99900000,-0.12000000,0.01000000,0.07000000,0.05000000,0.30000000,-0.02000000
565,0,-0.00500000,-0.00200000,0.99700000,-0.21000000,-0.35000000,-0.19000000,0.04000000,0.30000000,-0.02000000
566,0,-0.00300000,0.00100000,1.00000000,-0.16000000,0.09000000,-0.06000000,0.04000000,0.30000000,-0.02000000
567,0,-0.00800000,-0.00300000,1.00400000,0.12000000,-0.23000000,-0.02000000,0.04000000,0.30000000,-0.02000000
568,0,-0.00900000,-0.00200000,0.99900000,-0.02000000,-0.09000000,0.04000000,0.04000000,0.30000000,-0.02000000
569,0,-0.00400000,0.00100000,1.00000000,-0.07000000,0.13000000,-0.16000000,0.04000000,0.30000000,-0.02000000
570,0,-0.00800000,-0.00300000,1.00100000,0.28000000,0.11000000,0.00000000,0.04000000,0.30000000,-0.02000000
571,0,-0.00500000,0.00200000,1.00300000,-0.16000000,0.04000000,-0.02000000,0.04000000,0.30000000,-0.02000000
572,0,0.00100000,0.00100000,0.99600000,0.09000000,-0.16000000,-0.19000000,0.05000000,0.30000000,-0.02000000
573,0,-0.00500000,-0.00200000,0.99900000,0.08000000,-0.02000000,0.14000000,0.05000000,0.30000000,-0.02000000
574,0,-0.00500000,0.00200000,0.99500000,-0.02000000,-0.05000000,-0.11000000,0.05000000,0.30000000,-0.02000000
575,0,-0.00100000,0.00300000,0.99700000,0.03000000,0.16000000,-0.05000000,0.05000000,0.30000000,-0.02000000
576,0,-0.00100000,0.00200000,0.99800000,0.16000000,0.03000000,0.04000000,0.05000000,0.30000000,-0.02000000
577,0,-0.00300000,0.00500000,0.99800000,-0.11000000,-0.26000000,-0.08000000,0.05000000,0.30000000,-0.02000000
578,0,-0.00300000,0.00300000,0.99700000,0.06000000,0.05000000,-0.07000000,0.05000000,0.30000000,-0.02000000
579,0,-0.00400000,0.00400000,0.99600000,-0.12000000,-0.22000000,-0.01000000,0.05000000,0.29000000,-0.02000000
580,0,-0.00200000,0.00100000,1.00000000,0.27000000,0.23000000,0.03000000,0.05000000,0.30000000,-0.02000000
581,0,-0.01000000,-0.00000000,1.00100000,-0.01000000,0.00000000,0.12000000,0.05000000,0.30000000,-0.02000000
582,0,-0.00400000,0.00100000,0.99800000,-0.07000000,0.02000000,0.10000000,0.05000000,0.30000000,-0.02000000
583,0,-0.00100000,0.00200000,1.00000000,0.11000000,-0.11000000,-0.10000000,0.05000000,0.30000000,-0.01000000
584,0,-0.00100000,-0.00200000,1.00100000,0.03000000,0.01000000,-0.05000000,0.05000000,0.30000000,-0.02000000
585,0,0.00000000,0.00000000,1.00000000,-0.06000000,0.04000000,-0.11000000,0.05000000,0.30000000,-0.02000000
586,0,-0.00900000,-0.00100000,1.00600000,-0.06000000,0.08000000,0.01000000,0.05000000,0.29000000,-0.02000000
587,0,-0.00500000,-0.00100000,1.00100000,-0.01000000,-0.03000000,-0.10000000,0.05000000,0.30000000,-0.02000000
588,0,-0.00600000,-0.00200000,1.00000000,-0.11000000,0.05000000,0.10000000,0.05000000,0.30000000,-0.02000000
589,0,-0.00500000,0.00700000,0.99900000,0.02000000,-0.24000000,-0.10000000,0.05000000,0.29000000,-0.02000000
590,0,-0.01100000,0.00200000,0.99900000,-0.06000000,0.12000000,-0.07000000,0.05000000,0.29000000,-0.02000000
591,0,-0.00500000,0.00200000,1.00200000,0.28000000,-0.27000000,-0.02000000,0.05000000,0.30000000,-0.02000000
592,0,-0.00100000,-0.00300000,1.00300000,0.30000000,0.01000000,0.07000000,0.05000000,0.30000000,-0.02000000
593,0,0.00100000,0.00300000,1.00100000,0.03000000,-0.16000000,-0.04000000,0.05000000,0.29000000,-0.02000000
594,0,-0.00600000,-0.00200000,0.99800000,0.19000000,-0.17000000,-0.02000000,0.05000000,0.29000000,-0.02000000
595,0,-0.00500000,-0.00500000,0.99800000,-0.04000000,-0.18000000,-0.12000000,0.05000000,0.29000000,-0.02000000
596,0,-0.00500000,0.00100000,1.00300000,0.10000000,-0.03000000,-0.13000000,0.05000000,0.29000000,-0.02000000
597,0,-0.00300000,0.00100000,1.00500000,0.20000000,-0.07000000,0.21000000,0.05000000,0.29000000,-0.02000000
598,0,-0.00200000,0.00000000,0.99800000,-0.16000000,-0.17000000,-0.05000000,0.05000000,0.29000000,-0.02000000
599,0,-0.00700000,-0.00300000,0.99800000,0.29000000,-0.19000000,-0.01000000,0.06000000,0.29000000,-0.02000000
600,0,-0.00600000,-0.00000000,0.99800000,0.29000000,-0.14000000,0.26000000,0.06000000,0.29000000,-0.02000000
601,0,-0.00900000,-0.00100000,0.99300000,0.13000000,-0.09000000,0.01000000,0.06000000,0.29000000,-0.02000000
602,0,-0.00200000,-0.00300000,1.00100000,-0.15000000,-0.31000000,-0.04000000,0.06000000,0.29000000,-0.02000000
603,0,-0.00600000,0.00300000,0.99800000,-0.07000000,-0.17000000,-0.09000000,0.06000000,0.29000000,-0.02000000
604,0,-0.01000000,0.00000000,0.99700000,0.06000000,-0.09000000,-0.06000000,0.06000000,0.29000000,-0.02000000
605,0,-0.00500000,0.00200000,0.99900000,-0.04000000,0.08000000,-0.21000000,0.06000000,0.29000000,-0.02000000
606,0,-0.00500000,0.00800000,1.00000000,-0.01000000,-0.05000000,-0.21000000,0.06000000,0.29000000,-0.02000000
607,0,-0.00600000,0.00300000,1.00200000,0.06000000,-0.17000000,0.05000000,0.06000000,0.29000000,-0.02000000
608,0,-0.00700000,0.00000000,1.00200000,-0.14000000,0.13000000,-0.09000000,0.06000000,0.29000000,-0.02000000
609,0,-0.00700000,0.00100000,1.00100000,0.13000000,-0.10000000,-0.04000000,0.06000000,0.29000000,-0.02000000
610,0,-0.00600000,-0.00300000,1.00000000,0.25000000,0.27000000,-0.10000000,0.06000000,0.29000000,-0.02000000
611,0,-0.00600000,-0.00500000,0.99700000,0.09000000,0.10000000,0.04000000,0.06000000,0.29000000,-0.02000000
612,0,-0.00600000,0.00200000,0.99900000,0.12000000,-0.10000000,0.13000000,0.06000000,0.29000000,-0.02000000
613,0,-0.00600000,0.00200000,1.00300000,-0.00000000,0.18000000,-0.30000000,0.06000000,0.29000000,-0.02000000
614,0,-0.01400000,0.00400000,1.00100000,-0.23000000,-0.16000000,0.11000000,0.06000000,0.29000000,-0.02000000
615,0,-0.00400000,0.00000000,0.99800000,-0.03000000,-0.08000000,0.25000000,0.06000000,0.29000000,-0.02000000
616,0,-0.00700000,0.00200000,1.00100000,-0.07000000,0.03000000,0.15000000,0.06000000,0.29000000,-0.02000000
617,0,-0.00600000,-0.00500000,0.99900000,0.10000000,-0.10000000,-0.00000000,0.06000000,0.29000000,-0.02000000
618,0,-0.00100000,0.00200000,1.00300000,-0.00000000,-0.04000000,0.05000000,0.06000000,0.29000000,-0.02000000
619,0,0.00200000,0.00400000,0.99700000,0.16000000,-0.18000000,0.10000000,0.06000000,0.29000000,-0.02000000
620,0,-0.00700000,-0.00500000,1.00200000,0.11000000,0.20000000,-0.30000000,0.06000000,0.29000000,-0.02000000
621,0,-0.00500000,0.00500000,1.00300000,-0.08000000,-0.09000000,-0.11000000,0.06000000,0.29000000,-0.02000000
622,0,-0.01000000,-0.00000000,1.00300000,0.03000000,0.13000000,-0.00000000,0.06000000,0.29000000,-0.02000000
623,0,-0.00600000,0.00400000,1.00300000,0.16000000,-0.21000000,0.18000000,0.06000000,0.29000000,-0.02000000
624,0,-0.00500000,0.00300000,1.00200000,-0.24000000,0.32000000,0.07000000,0.06000000,0.29000000,-0.02000000
625,0,-0.00500000,0.00600000,1.00200000,0.05000000,0.12000000,0.07000000,0.06000000,0.29000000,-0.02000000
626,0,-0.00300000,0.00400000,1.00100000,-0.15000000,0.09000000,0.13000000,0.06000000,0.29000000,-0.02000000
627,0,-0.00300000,0.00500000,0.99700000,-0.07000000,-0.08000000,0.27000000,0.06000000,0.29000000,-0.02000000
628,0,-0.00600000,0.00400000,0.99900000,0.06000000,-0.10000000,-0.01000000,0.06000000,0.29000000,-0.02000000
629,0,-0.00100000,0.00400000,1.00000000,-0.10000000,0.03000000,0.17000000,0.06000000,0.28000000,-0.02000000
630,0,-0.01000000,0.00100000,0.99800000,-0.06000000,-0.00000000,0.25000000,0.06000000,0.28000000,-0.02000000
631,0,-0.00300000,0.00200000,0.99900000,0.02000000,-0.08000000,-0.22000000,0.06000000,0.28000000,-0.02000000
632,0,-0.00500000,-0.00000000,1.00200000,-0.14000000,-0.12000000,0.05000000,0.07000000,0.29000000,-0.02000000
633,0,-0.00500000,-0.00100000,0.99900000,0.03000000,0.21000000,0.13000000,0.07000000,0.29000000,-0.02000000
634,0,-0.00800000,-0.00100000,1.00200000,-0.07000000,0.05000000,0.01000000,0.07000000,0.29000000,-0.02000000
635,0,-0.00700000,0.00100000,0.99600000,-0.03000000,-0.00000000,-0.18000000,0.07000000,0.29000000,-0.02000000
636,0,-0.00700000,0.00400000,0.99800000,-0.06000000,0.23000000,-0.06000000,0.06000000,0.29000000,-0.02000000
637,0,-0.00100000,-0.00100000,1.00700000,0.03000000,-0.14000000,-0.12000000,0.06000000,0.29000000,-0.02000000
638,0,-0.00300000,-0.00000000,1.00000000,-0.02000000,0.04000000,0.04000000,0.06000000,0.29000000,-0.02000000
639,0,-0.00800000,-0.00100000,0.99700000,-0.02000000,-0.06000000,0.09000000,0.06000000,0.29000000,-0.02000000
640,0,0.00100000,-0.00100000,0.99800000,-0.17000000,-0.20000000,-0.13000000,0.06000000,0.29000000,-0.02000000
641,0,-0.00400000,0.00200000,0.99900000,0.03000000,-0.15000000,-0.12000000,0.06000000,0.29000000,-0.02000000
642,0,-0.00900000,-0.00500000,1.00100000,0.18000000,0.17000000,0.04000000,0.06000000,0.29000000,-0.02000000
643,0,-0.00400000,0.00100000,0.99800000,0.06000000,-0.18000000,0.11000000,0.06000000,0.29000000,-0.02000000
644,0,-0.00600000,-0.00000000,0.99600000,-0.01000000,0.21000000,-0.12000000,0.06000000,0.29000000,-0.02000000
645,0,-0.00500000,-0.00000000,1.00100000,0.00000000,-0.15000000,-0.23000000,0.06000000,0.29000000,-0.02000000
646,0,-0.00400000,0.00400000,0.99800000,-0.14000000,-0.03000000,0.08000000,0.06000000,0.29000000,-0.02000000
647,0,-0.00600000,0.00200000,0.99600000,0.18000000,-0.04000000,-0.23000000,0.06000000,0.29000000,-0.02000000
648,0,-0.00700000,0.00600000,0.99700000,0.16000000,-0.05000000,-0.03000000,0.06000000,0.29000000,-0.02000000
649,0,-0.00400000,0.00600000,1.00200000,0.02000000,0.04000000,0.16000000,0.06000000,0.29000000,-0.02000000
650,0,-0.00300000,0.00100000,0.99700000,-0.14000000,0.01000000,-0.05000000,0.06000000,0.29000000,-0.02000000
651,0,-0.00700000,-0.00000000,1.00400000,0.04000000,-0.03000000,0.23000000,0.06000000,0.29000000,-0.02000000
652,0,-0.00600000,-0.00100000,1.00100000,-0.23000000,-0.12000000,0.06000000,0.06000000,0.29000000,-0.02000000
653,0,-0.00900000,-0.00100000,1.00000000,0.02000000,0.04000000,0.01000000,0.06000000,0.29000000,-0.02000000
654,0,-0.00600000,-0.00000000,1.00000000,-0.03000000,-0.32000000,-0.01000000,0.06000000,0.29000000,-0.02000000
655,0,-0.00300000,-0.00200000,1.00100000,-0.07000000,-0.26000000,-0.20000000,0.06000000,0.29000000,-0.02000000
656,0,-0.00900000,-0.00100000,0.99600000,0.11000000,-0.03000000,0.10000000,0.06000000,0.29000000,-0.02000000
657,0,-0.00400000,-0.00100000,1.00100000,-0.04000000,-0.47000000,-0.29000000,0.06000000,0.29000000,-0.02000000
658,0,-0.00100000,0.00300000,0.99700000,0.26000000,-0.03000000,-0.06000000,0.06000000,0.29000000,-0.02000000
659,0,-0.00800000,-0.00100000,1.00200000,0.05000000,0.02000000,0.04000000,0.06000000,0.29000000,-0.02000000
660,0,-0.00500000,-0.00100000,1.00000000,0.03000000,-0.04000000,0.07000000,0.06000000,0.29000000,-0.02000000
661,0,-0.00100000,-0.00000000,0.99900000,0.10000000,-0.10000000,0.32000000,0.06000000,0.29000000,-0.02000000
662,0,-0.00800000,0.00600000,1.00200000,-0.11000000,0.01000000,0.08000000,0.06000000,0.29000000,-0.02000000
663,0,-0.00800000,-0.00100000,0.99600000,0.12000000,-0.02000000,0.02000000,0.06000000,0.29000000,-0.02000000
664,0,-0.00600000,-0.00000000,0.99900000,-0.07000000,-0.14000000,-0.03000000,0.06000000,0.29000000,-0.02000000
665,0,-0.00600000,0.00300000,1.00200000,0.11000000,-0.10000000,-0.23000000,0.06000000,0.29000000,-0.02000000
666,0,-0.00600000,0.00100000,1.00200000,-0.18000000,0.05000000,-0.04000000,0.06000000,0.29000000,-0.02000000
667,0,-0.00200000,0.00300000,1.00100000,0.19000000,0.02000000,-0.12000000,0.06000000,0.29000000,-0.02000000
668,0,-0.00400000,0.00100000,1.00300000,-0.14000000,0.13000000,0.24000000,0.06000000,0.29000000,-0.02000000
669,0,-0.00800000,0.00500000,1.00100000,-0.03000000,-0.30000000,0.03000000,0.06000000,0.29000000,-0.02000000
670,0,-0.00900000,-0.00200000,0.99500000,-0.19000000,-0.08000000,0.22000000,0.06000000,0.29000000,-0.02000000
671,0,-0.00600000,0.00400000,1.00100000,-0.15000000,-0.07000000,0.15000000,0.05000000,0.29000000,-0.02000000
672,0,-0.00700000,0.00100000,0.99700000,-0.19000000,0.08000000,-0.00000000,0.05000000,0.29000000,-0.02000000
673,0,-0.00200000,-0.00100000,0.99900000,-0.02000000,-0.09000000,-0.11000000,0.05000000,0.29000000,-0.02000000
674,0,-0.00500000,-0.00200000,1.00000000,-0.05000000,0.27000000,-0.06000000,0.05000000,0.29000000,-0.02000000
675,0,-0.00100000,-0.00400000,1.00200000,-0.05000000,-0.03000000,0.19000000,0.05000000,0.29000000,-0.02000000
676,0,-0.00400000,0.00100000,0.99900000,0.07000000,-0.13000000,0.11000000,0.05000000,0.29000000,-0.02000000
677,0,-0.00400000,-0.00400000,1.00000000,0.10000000,0.08000000,-0.03000000,0.05000000,0.29000000,-0.02000000
678,0,-0.00600000,0.00700000,1.00200000,-0.13000000,-0.14000000,0.13000000,0.05000000,0.29000000,-0.02000000
679,0,-0.00600000,0.00500000,0.99500000,0.07000000,-0.04000000,0.26000000,0.05000000,0.29000000,-0.02000000
680,0,-0.00400000,-0.00200000,1.00000000,-0.17000000,0.10000000,0.06000000,0.05000000,0.29000000,-0.02000000
681,0,-0.00200000,-0.00000000,0.99600000,-0.22000000,-0.08000000,-0.23000000,0.05000000,0.29000000,-0.02000000
682,0,-0.00400000,0.00300000,0.99800000,0.12000000,0.05000000,0.08000000,0.05000000,0.29000000,-0.02000000
683,0,-0.00300000,0.00100000,0.99900000,-0.10000000,-0.03000000,0.18000000,0.05000000,0.29000000,-0.02000000
684,0,-0.00100000,0.00300000,1.00100000,0.06000000,-0.14000000,-0.24000000,0.05000000,0.29000000,-0.02000000
685,0,-0.00300000,-0.00500000,1.00100000,-0.05000000,-0.48000000,0.03000000,0.05000000,0.29000000,-0.02000000
686,0,-0.00400000,0.00600000,1.00200000,0.17000000,-0.15000000,-0.19000000,0.05000000,0.29000000,-0.02000000
687,0,0.00100000,-0.00000000,1.00000000,-0.03000000,-0.10000000,-0.03000000,0.05000000,0.29000000,-0.02000000
688,0,-0.00700000,-0.00200000,0.99900000,-0.25000000,0.06000000,-0.16000000,0.05000000,0.29000000,-0.02000000
689,0,-0.00500000,0.00600000,0.99900000,-0.05000000,0.06000000,0.16000000,0.05000000,0.29000000,-0.01000000
690,0,-0.00500000,-0.00400000,1.00100000,-0.19000000,0.08000000,-0.17000000,0.05000000,0.29000000,-0.02000000
691,0,-0.00400000,0.00300000,1.00200000,0.06000000,-0.31000000,-0.05000000,0.05000000,0.29000000,-0.02000000
692,0,-0.00600000,-0.00500000,0.99300000,0.15000000,-0.05000000,-0.03000000,0.05000000,0.29000000,-0.02000000
693,0,-0.00700000,0.00200000,0.99900000,-0.06000000,0.04000000,-0.09000000,0.05000000,0.29000000,-0.02000000
694,0,-0.00100000,-0.00000000,0.99400000,-0.07000000,0.15000000,-0.25000000,0.05000000,0.29000000,-0.02000000
695,0,-0.00800000,0.00400000,0.99700000,-0.06000000,-0.03000000,-0.10000000,0.05000000,0.29000000,-0.02000000
696,0,-0.00600000,0.00700000,0.99700000,0.25000000,0.22000000,-0.23000000,0.05000000,0.29000000,-0.02000000
697,0,-0.00600000,0.00100000,1.00400000,-0.03000000,-0.05000000,0.20000000,0.05000000,0.29000000,-0.02000000
698,0,-0.00200000,-0.00100000,0.99800000,-0.00000000,0.16000000,-0.15000000,0.05000000,0.29000000,-0.02000000
699,0,-0.00600000,0.00400000,1.00200000,-0.06000000,-0.02000000,0.23000000,0.05000000,0.29000000,-0.01000000
700,0,0.00000000,-0.00200000,0.99900000,0.03000000,0.21000000,-0.26000000,0.05000000,0.29000000,-0.02000000
701,0,-0.00700000,0.00100000,1.00000000,0.06000000,-0.07000000,0.04000000,0.05000000,0.29000000,-0.02000000
702,0,-0.00500000,0.00200000,1.00300000,-0.05000000,0.27000000,0.03000000,0.05000000,0.29000000,-0.01000000
703,0,0.00100000,0.00300000,0.99800000,0.24000000,0.22000000,0.00000000,0.05000000,0.29000000,-0.01000000
704,0,-0.00300000,0.00000000,0.99900000,0.05000000,0.02000000,-0.22000000,0.05000000,0.29000000,-0.01000000
705,0,-0.00200000,0.00200000,0.99700000,0.09000000,0.00000000,-0.14000000,0.05000000,0.29000000,-0.01000000
706,0,-0.00300000,0.00100000,1.00100000,-0.10000000,-0.05000000,0.06000000,0.05000000,0.29000000,-0.02000000
707,0,-0.00100000,0.00200000,1.00400000,0.14000000,0.14000000,0.20000000,0.05000000,0.29000000,-0.02000000
708,0,-0.00300000,0.00300000,0.99700000,-0.04000000,-0.04000000,-0.10000000,0.05000000,0.29000000,-0.02000000
709,0,-0.00900000,-0.00100000,0.99700000,0.09000000,0.01000000,0.09000000,0.05000000,0.29000000,-0.02000000
710,0,-0.00700000,-0.00200000,0.99700000,0.18000000,-0.04000000,0.16000000,0.05000000,0.29000000,-0.01000000
711,0,-0.00400000,0.00200000,0.99400000,0.14000000,-0.06000000,-0.36000000,0.05000000,0.29000000,-0.02000000
712,0,-0.00500000,0.00400000,1.00100000,-0.07000000,0.04000000,0.06000000,0.05000000,0.29000000,-0.02000000
713,0,-0.00900000,0.00200000,0.99900000,-0.23000000,-0.00000000,0.03000000,0.05000000,0.29000000,-0.02000000
714,0,-0.00600000,0.00400000,0.99900000,0.03000000,-0.02000000,0.12000000,0.05000000,0.29000000,-0.02000000
715,0,-0.00800000,-0.00200000,1.00100000,0.01000000,-0.27000000,0.09000000,0.05000000,0.29000000,-0.01000000
716,0,-0.00800000,-0.00000000,1.00400000,-0.25000000,0.30000000,0.26000000,0.05000000,0.29000000,-0.01000000
717,0,-0.00700000,-0.00100000,1.00000000,-0.00000000,0.01000000,-0.12000000,0.05000000,0.29000000,-0.02000000
718,0,-0.00600000,0.00100000,1.00100000,0.15000000,-0.09000000,0.10000000,0.05000000,0.29000000,-0.02000000
719,0,-0.01300000,-0.00200000,1.00200000,0.11000000,-0.02000000,0.20000000,0.05000000,0.29000000,-0.02000000
720,0,-0.00200000,-0.00200000,0.99700000,0.06000000,0.26000000,0.09000000,0.05000000,0.29000000,-0.02000000
721,0,-0.01000000,0.00100000,0.99400000,-0.01000000,-0.09000000,0.09000000,0.05000000,0.29000000,-0.02000000
722,0,-0.00300000,0.00200000,0.99700000,-0.14000000,0.06000000,0.21000000,0.05000000,0.29000000,-0.02000000
723,0,-0.00800000,-0.00400000,1.00200000,0.08000000,-0.08000000,-0.00000000,0.05000000,0.29000000,-0.02000000
724,0,-0.00900000,0.00100000,0.99800000,-0.17000000,-0.02000000,-0.22000000,0.05000000,0.29000000,-0.02000000
725,0,-0.00400000,0.00100000,1.00200000,0.08000000,-0.04000000,-0.15000000,0.05000000,0.29000000,-0.02000000
726,0,-0.00200000,-0.00200000,0.99700000,0.23000000,-0.08000000,0.08000000,0.05000000,0.29000000,-0.02000000
727,0,-0.00300000,-0.00300000,1.00000000,-0.12000000,0.09000000,0.12000000,0.05000000,0.29000000,-0.02000000
728,0,-0.00200000,-0.00100000,0.99800000,-0.22000000,-0.10000000,0.16000000,0.05000000,0.29000000,-0.02000000
729,0,-0.00200000,0.00300000,0.99900000,-0.07000000,-0.08000000,-0.03000000,0.05000000,0.29000000,-0.02000000
730,0,-0.00800000,-0.00000000,1.00000000,-0.06000000,-0.02000000,-0.17000000,0.05000000,0.29000000,-0.02000000
731,0,-0.00400000,-0.00000000,0.99400000,0.12000000,-0.08000000,-0.03000000,0.05000000,0.29000000,-0.02000000
732,0,-0.00600000,-0.00200000,1.00000000,0.01000000,-0.08000000,0.08000000,0.05000000,0.29000000,-0.02000000
733,0,-0.00800000,0.00200000,1.00200000,0.02000000,-0.04000000,-0.12000000,0.05000000,0.29000000,-0.02000000
734,0,-0.00400000,-0.00100000,0.99800000,-0.16000000,0.07000000,0.00000000,0.05000000,0.29000000,-0.02000000
735,0,-0.00500000,-0.00100000,0.99600000,-0.06000000,-0.03000000,0.01000000,0.05000000,0.29000000,-0.02000000
736,0,-0.00300000,0.00200000,0.99700000,0.02000000,0.18000000,-0.13000000,0.05000000,0.29000000,-0.02000000
737,0,-0.00500000,0.00100000,1.00200000,-0.03000000,0.07000000,0.07000000,0.05000000,0.29000000,-0.02000000
738,0,-0.00700000,0.00200000,1.00500000,0.16000000,-0.08000000,-0.13000000,0.05000000,0.29000000,-0.02000000
739,0,-0.00200000,-0.00500000,1.00200000,0.12000000,0.15000000,0.04000000,0.05000000,0.29000000,-0.02000000
740,0,-0.00500000,0.00200000,1.00400000,-0.03000000,-0.02000000,0.09000000,0.05000000,0.29000000,-0.02000000
741,0,-0.00900000,-0.00000000,0.99900000,-0.05000000,0.07000000,-0.14000000,0.05000000,0.29000000,-0.02000000
742,0,-0.00400000,-0.00300000,0.99900000,-0.07000000,0.07000000,-0.12000000,0.05000000,0.29000000,-0.02000000
743,0,0.00100000,0.00100000,0.99800000,0.23000000,0.00000000,-0.04000000,0.05000000,0.29000000,-0.02000000
744,0,-0.00200000,-0.00000000,0.99600000,-0.01000000,-0.08000000,0.18000000,0.05000000,0.29000000,-0.02000000
745,0,-0.00700000,-0.00200000,1.00000000,0.10000000,-0.16000000,-0.03000000,0.05000000,0.29000000,-0.02000000
746,0,-0.01000000,-0.00400000,0.99800000,0.10000000,0.04000000,-0.26000000,0.05000000,0.29000000,-0.02000000
747,0,-0.00700000,-0.00300000,0.99600000,0.27000000,-0.07000000,-0.05000000,0.06000000,0.29000000,-0.02000000
748,0,-0.00700000,-0.00400000,1.00000000,0.04000000,-0.17000000,0.04000000,0.05000000,0.29000000,-0.02000000
749,0,-0.00100000,0.00300000,0.99900000,-0.17000000,-0.07000000,0.13000000,0.05000000,0.29000000,-0.02000000
750,0,-0.00600000,0.00200000,0.99900000,0.11000000,-0.08000000,0.22000000,0.05000000,0.29000000,-0.02000000
751,0,-0.00400000,-0.00100000,1.00000000,0.08000000,-0.07000000,-0.01000000,0.05000000,0.29000000,-0.02000000
752,0,-0.01000000,0.00200000,1.00000000,0.22000000,-0.06000000,0.04000000,0.05000000,0.29000000,-0.02000000
753,0,-0.00700000,0.00100000,1.00100000,-0.04000000,-0.04000000,-0.15000000,0.05000000,0.29000000,-0.02000000
754,0,-0.00400000,0.00300000,1.00100000,0.16000000,0.10000000,-0.03000000,0.05000000,0.29000000,-0.02000000
755,0,-0.00400000,-0.00100000,0.99600000,-0.12000000,-0.12000000,-0.12000000,0.05000000,0.29000000,-0.02000000
756,0,-0.00400000,0.00300000,0.99600000,0.11000000,-0.04000000,0.03000000,0.05000000,0.29000000,-0.02000000
757,0,-0.00200000,0.00100000,0.99900000,-0.01000000,-0.20000000,0.31000000,0.05000000,0.29000000,-0.02000000
758,0,-0.00800000,-0.00100000,0.99900000,-0.03000000,-0.01000000,0.08000000,0.05000000,0.29000000,-0.02000000
759,0,-0.00000000,0.00100000,0.99800000,0.00000000,0.06000000,0.13000000,0.05000000,0.29000000,-0.02000000
760,0,-0.00000000,-0.00100000,1.00000000,-0.05000000,0.28000000,0.04000000,0.05000000,0.29000000,-0.02000000
761,0,0.00300000,0.00200000,0.99900000,-0.03000000,-0.11000000,0.13000000,0.05000000,0.29000000,-0.02000000
762,0,-0.00700000,0.00200000,0.99900000,0.03000000,-0.16000000,0.05000000,0.05000000,0.29000000,-0.02000000
763,0,-0.00600000,-0.00300000,1.00100000,-0.07000000,0.11000000,0.07000000,0.05000000,0.29000000,-0.02000000
764,0,-0.00600000,-0.00300000,0.99900000,-0.10000000,0.07000000,-0.09000000,0.05000000,0.29000000,-0.02000000
765,0,-0.00200000,-0.00300000,0.99800000,-0.17000000,-0.03000000,0.01000000,0.05000000,0.29000000,-0.02000000
766,0,-0.00500000,0.00400000,1.00000000,-0.13000000,0.21000000,0.23000000,0.05000000,0.29000000,-0.02000000
767,0,-0.00400000,-0.00400000,0.99900000,0.08000000,-0.14000000,-0.15000000,0.05000000,0.29000000,-0.02000000
768,0,-0.00400000,0.00100000,1.00000000,0.14000000,0.02000000,-0.15000000,0.05000000,0.29000000,-0.02000000
769,0,-0.00600000,0.00200000,1.00200000,-0.03000000,0.04000000,0.25000000,0.05000000,0.29000000,-0.02000000
770,0,-0.00900000,0.00200000,1.00000000,0.14000000,0.01000000,0.09000000,0.05000000,0.29000000,-0.02000000
771,0,-0.00200000,0.00100000,0.99800000,-0.00000000,0.10000000,0.05000000,0.05000000,0.29000000,-0.02000000
772,0,-0.01000000,-0.00300000,1.00000000,0.03000000,0.13000000,-0.09000000,0.05000000,0.29000000,-0.02000000
773,0,-0.00800000,0.00500000,1.00200000,-0.01000000,0.16000000,0.04000000,0.05000000,0.29000000,-0.02000000
774,0,-0.00600000,0.00600000,1.00100000,-0.19000000,0.09000000,0.02000000,0.05000000,0.29000000,-0.02000000
775,0,-0.00300000,0.00000000,1.00200000,0.11000000,-0.35000000,0.19000000,0.05000000,0.29000000,-0.02000000
776,0,-0.00700000,0.00100000,0.99900000,-0.19000000,0.15000000,0.05000000,0.05000000,0.29000000,-0.02000000
777,0,-0.00500000,-0.00100000,0.99900000,0.04000000,-0.03000000,0.08000000,0.05000000,0.29000000,-0.02000000
778,0,-0.00800000,-0.00000000,1.00400000,-0.19000000,0.19000000,-0.01000000,0.05000000,0.29000000,-0.02000000
779,0,-0.00700000,0.00100000,0.99900000,-0.17000000,-0.08000000,0.03000000,0.05000000,0.29000000,-0.02000000
780,0,-0.00700000,-0.00300000,1.00500000,-0.10000000,0.03000000,0.05000000,0.05000000,0.29000000,-0.02000000
781,0,-0.00900000,-0.00300000,1.00000000,-0.04000000,-0.05000000,0.10000000,0.05000000,0.29000000,-0.02000000
782,0,-0.00100000,-0.00000000,1.00300000,0.16000000,-0.03000000,0.02000000,0.04000000,0.29000000,-0.02000000
783,0,-0.00800000,0.00300000,1.00200000,-0.04000000,0.05000000,0.30000000,0.04000000,0.29000000,-0.02000000
784,0,0.00100000,0.00400000,1.00000000,0.20000000,0.32000000,0.08000000,0.05000000,0.29000000,-0.02000000
785,0,-0.00800000,0.00400000,1.00000000,-0.05000000,0.18000000,-0.09000000,0.05000000,0.29000000,-0.02000000
786,0,-0.01200000,-0.00100000,1.00200000,0.08000000,-0.11000000,-0.33000000,0.05000000,0.29000000,-0.02000000
787,0,-0.00600000,-0.00100000,1.00100000,0.15000000,0.09000000,0.03000000,0.05000000,0.29000000,-0.02000000
788,0,-0.00600000,-0.00500000,1.00400000,-0.06000000,0.11000000,0.22000000,0.05000000,0.29000000,-0.02000000
789,0,-0.00400000,0.00700000,0.99900000,-0.07000000,0.14000000,-0.06000000,0.05000000,0.29000000,-0.02000000
790,0,-0.01000000,0.00200000,0.99900000,-0.11000000,-0.11000000,-0.45000000,0.04000000,0.29000000,-0.02000000
791,0,-0.00200000,0.00300000,1.00100000,-0.12000000,-0.04000000,-0.15000000,0.05000000,0.29000000,-0.02000000
792,0,-0.00400000,0.00100000,0.99800000,-0.35000000,-0.08000000,0.07000000,0.04000000,0.29000000,-0.02000000
793,0,-0.00500000,0.00400000,1.00000000,-0.24000000,0.03000000,0.08000000,0.04000000,0.29000000,-0.02000000
794,0,-0.00200000,0.00300000,1.00200000,0.01000000,0.09000000,0.08000000,0.04000000,0.29000000,-0.02000000
795,0,-0.00900000,-0.00000000,0.99700000,0.05000000,0.09000000,0.11000000,0.04000000,0.29000000,-0.02000000
796,0,-0.00300000,0.00000000,0.99400000,-0.14000000,0.26000000,-0.19000000,0.04000000,0.29000000,-0.02000000
797,0,-0.00500000,0.00200000,0.99600000,-0.11000000,-0.04000000,0.17000000,0.04000000,0.29000000,-0.02000000
798,0,-0.00600000,-0.00400000,1.00100000,0.04000000,-0.05000000,-0.18000000,0.04000000,0.29000000,-0.02000000
799,0,0.00100000,-0.00300000,1.00300000,-0.19000000,0.09000000,-0.01000000,0.04000000,0.29000000,-0.02000000
800,0,-0.01000000,-0.00300000,0.99700000,-0.11000000,0.05000000,-0.01000000,0.04000000,0.29000000,-0.02000000
801,0,-0.00600000,0.00200000,1.00000000,-0.03000000,0.01000000,0.19000000,0.04000000,0.29000000,-0.02000000
802,0,0.00100000,-0.00100000,0.99700000,0.01000000,-0.12000000,0.10000000,0.04000000,0.29000000,-0.02000000
803,0,-0.00400000,-0.00100000,0.99700000,-0.16000000,0.04000000,0.19000000,0.04000000,0.29000000,-0.02000000
804,0,-0.00400000,0.00300000,1.00400000,0.18000000,0.14000000,0.02000000,0.04000000,0.29000000,-0.02000000
805,0,-0.00800000,0.00500000,0.99900000,0.14000000,-0.00000000,0.03000000,0.04000000,0.29000000,-0.02000000
806,0,-0.00800000,0.00100000,1.00100000,-0.09000000,0.02000000,0.16000000,0.04000000,0.29000000,-0.02000000
807,0,-0.00500000,-0.00100000,0.99800000,-0.02000000,0.06000000,0.10000000,0.04000000,0.29000000,-0.02000000
808,0,-0.00400000,0.01000000,0.99600000,-0.13000000,0.05000000,0.13000000,0.04000000,0.29000000,-0.02000000
809,0,-0.00400000,-0.00200000,0.99800000,0.15000000,0.03000000,0.12000000,0.04000000,0.29000000,-0.02000000
810,0,-0.00500000,0.00000000,0.99700000,-0.01000000,0.43000000,-0.26000000,0.04000000,0.29000000,-0.02000000
811,0,-0.00300000,0.00100000,0.99800000,0.05000000,0.08000000,0.08000000,0.04000000,0.29000000,-0.02000000
812,0,-0.00400000,0.00200000,0.99900000,0.09000000,-0.08000000,0.16000000,0.04000000,0.29000000,-0.02000000
813,0,-0.00300000,-0.00000000,1.00000000,-0.13000000,-0.14000000,-0.21000000,0.04000000,0.29000000,-0.02000000
814,0,0.00100000,-0.00100000,1.00100000,0.18000000,-0.08000000,0.19000000,0.04000000,0.29000000,-0.02000000
815,0,-0.00200000,0.00200000,0.99800000,-0.07000000,-0.21000000,0.16000000,0.04000000,0.29000000,-0.02000000
816,0,-0.00700000,-0.00500000,1.00000000,0.12000000,-0.00000000,-0.00000000,0.05000000,0.29000000,-0.02000000
817,0,-0.00700000,-0.00200000,0.99700000,-0.13000000,-0.04000000,0.23000000,0.04000000,0.29000000,-0.02000000
818,0,-0.00600000,-0.00100000,0.99900000,0.11000000,-0.12000000,-0.05000000,0.05000000,0.29000000,-0.02000000
819,0,-0.00600000,0.00200000,1.00000000,-0.11000000,0.09000000,-0.04000000,0.04000000,0.29000000,-0.02000000
820,0,-0.00500000,0.00600000,1.00400000,-0.18000000,0.17000000,-0.15000000,0.04000000,0.29000000,-0.02000000
821,0,-0.00800000,-0.00200000,0.99800000,0.06000000,-0.08000000,-0.20000000,0.04000000,0.29000000,-0.02000000
822,0,-0.00200000,0.00400000,1.00000000,0.10000000,0.19000000,-0.05000000,0.04000000,0.29000000,-0.02000000
823,0,-0.00300000,0.00500000,1.00200000,0.05000000,0.13000000,0.18000000,0.04000000,0.29000000,-0.02000000
824,0,-0.00400000,-0.00200000,0.99800000,0.09000000,-0.04000000,-0.24000000,0.04000000,0.29000000,-0.02000000
825,0,-0.00700000,0.00300000,0.99800000,-0.10000000,-0.05000000,0.19000000,0.04000000,0.29000000,-0.02000000
826,0,-0.00400000,-0.00100000,0.99800000,0.16000000,0.06000000,0.05000000,0.04000000,0.29000000,-0.02000000
827,0,-0.00500000,-0.00600000,1.00200000,0.16000000,-0.24000000,-0.12000000,0.04000000,0.29000000,-0.02000000
828,0,-0.00500000,0.00200000,0.99800000,-0.13000000,0.23000000,0.01000000,0.04000000,0.29000000,-0.02000000
829,0,-0.00700000,0.00200000,1.00000000,0.01000000,-0.06000000,-0.18000000,0.05000000,0.29000000,-0.02000000
830,0,-0.00600000,0.00900000,0.99900000,0.11000000,0.08000000,0.28000000,0.05000000,0.29000000,-0.02000000
831,0,-0.00300000,0.00500000,0.99900000,-0.06000000,0.01000000,0.33000000,0.05000000,0.29000000,-0.02000000
832,0,-0.00200000,0.00100000,0.99700000,-0.12000000,-0.03000000,0.11000000,0.05000000,0.29000000,-0.02000000
833,0,-0.00600000,0.00600000,0.99400000,0.18000000,0.02000000,-0.11000000,0.05000000,0.29000000,-0.02000000
834,0,-0.00500000,-0.00000000,0.99800000,0.02000000,0.02000000,0.22000000,0.05000000,0.29000000,-0.02000000
835,0,-0.01000000,0.00200000,0.99600000,-0.04000000,-0.07000000,0.17000000,0.05000000,0.29000000,-0.02000000
836,0,-0.00200000,-0.00200000,1.00100000,0.02000000,-0.02000000,-0.06000000,0.05000000,0.29000000,-0.02000000
837,0,-0.00600000,0.00000000,0.99600000,0.13000000,0.07000000,0.05000000,0.05000000,0.29000000,-0.02000000
838,0,-0.00100000,0.00000000,1.00200000,-0.08000000,0.04000000,-0.23000000,0.05000000,0.29000000,-0.02000000
839,0,-0.00600000,0.00500000,0.99800000,0.05000000,-0.14000000,0.00000000,0.05000000,0.29000000,-0.02000000
840,0,-0.00900000,0.00400000,0.99700000,-0.09000000,-0.15000000,0.01000000,0.05000000,0.29000000,-0.02000000
841,0,-0.00900000,-0.00000000,0.99600000,-0.19000000,-0.18000000,0.05000000,0.04000000,0.29000000,-0.02000000
842,0,-0.00300000,-0.00200000,1.00300000,0.02000000,0.04000000,-0.18000000,0.04000000,0.29000000,-0.02000000
843,0,-0.00600000,-0.00500000,1.00100000,0.03000000,-0.18000000,-0.23000000,0.04000000,0.29000000,-0.02000000
844,0,-0.00500000,-0.00300000,1.00100000,0.12000000,-0.16000000,-0.08000000,0.04000000,0.29000000,-0.02000000
845,0,-0.00800000,0.00300000,0.99900000,-0.03000000,0.12000000,0.16000000,0.04000000,0.29000000,-0.02000000
846,0,-0.00600000,0.00200000,0.99500000,-0.11000000,0.09000000,0.08000000,0.04000000,0.29000000,-0.02000000
847,0,-0.00200000,-0.00000000,1.00200000,0.13000000,0.15000000,0.02000000,0.04000000,0.29000000,-0.02000000
848,0,-0.00700000,-0.00100000,1.00600000,0.15000000,0.04000000,0.03000000,0.04000000,0.29000000,-0.02000000
849,0,-0.00100000,-0.00500000,0.99700000,-0.00000000,-0.08000000,-0.22000000,0.04000000,0.29000000,-0.02000000
850,0,-0.00600000,-0.00100000,1.00200000,-0.16000000,-0.05000000,-0.06000000,0.04000000,0.29000000,-0.02000000
851,0,-0.00700000,0.00300000,0.99900000,-0.19000000,-0.33000000,0.27000000,0.04000000,0.29000000,-0.02000000
852,0,0.00000000,-0.00300000,1.00300000,-0.10000000,0.12000000,0.14000000,0.04000000,0.29000000,-0.02000000
853,0,-0.00200000,0.00400000,0.99900000,0.15000000,-0.08000000,0.16000000,0.04000000,0.29000000,-0.02000000
854,0,-0.00700000,0.00500000,1.00200000,-0.24000000,-0.11000000,0.05000000,0.04000000,0.29000000,-0.02000000
855,0,-0.00400000,0.00500000,0.99800000,-0.02000000,0.18000000,0.01000000,0.04000000,0.29000000,-0.02000000
856,0,-0.00800000,-0.00400000,1.00100000,0.17000000,0.08000000,-0.48000000,0.04000000,0.29000000,-0.02000000
857,0,-0.00400000,0.00100000,0.99800000,-0.05000000,-0.06000000,0.09000000,0.04000000,0.29000000,-0.02000000
858,0,-0.00800000,-0.00200000,0.99900000,0.21000000,0.08000000,0.12000000,0.04000000,0.29000000,-0.02000000
859,0,-0.00500000,0.00100000,1.00400000,0.09000000,0.07000000,0.33000000,0.04000000,0.29000000,-0.02000000
860,0,-0.00700000,-0.00000000,1.00700000,0.20000000,-0.06000000,-0.06000000,0.04000000,0.29000000,-0.02000000
861,0,-0.00200000,0.00300000,1.00100000,0.15000000,0.10000000,-0.03000000,0.04000000,0.29000000,-0.02000000
862,0,0.00400000,0.00600000,1.00600000,-0.26000000,-0.21000000,-0.23000000,0.04000000,0.29000000,-0.02000000
863,0,-0.00100000,-0.00200000,1.00900000,-0.24000000,-0.16000000,0.02000000,0.04000000,0.29000000,-0.02000000
864,0,-0.00100000,-0.00300000,1.00900000,-0.15000000,-0.09000000,-0.04000000,0.04000000,0.30000000,-0.02000000
865,0,-0.00600000,0.00200000,0.99400000,0.22000000,-0.24000000,0.05000000,0.04000000,0.29000000,-0.02000000
866,0,-0.00600000,-0.00400000,0.98800000,-0.11000000,0.01000000,-0.07000000,0.04000000,0.30000000,-0.02000000
867,0,-0.00500000,-0.00200000,0.99900000,0.07000000,-0.04000000,-0.09000000,0.04000000,0.30000000,-0.02000000
868,0,-0.00500000,-0.00400000,0.98700000,0.03000000,-0.19000000,-0.02000000,0.04000000,0.30000000,-0.02000000
869,0,-0.01000000,0.00100000,0.99400000,-0.05000000,-0.10000000,0.30000000,0.04000000,0.30000000,-0.02000000
870,0,-0.00100000,-0.00100000,0.98800000,0.06000000,0.08000000,-0.04000000,0.04000000,0.30000000,-0.02000000
871,0,-0.00100000,-0.00100000,1.00900000,0.09000000,0.10000000,0.02000000,0.04000000,0.30000000,-0.02000000
872,0,-0.00900000,0.00100000,1.00300000,-0.05000000,0.04000000,-0.05000000,0.04000000,0.30000000,-0.02000000
873,0,-0.00500000,0.00000000,0.99600000,-0.14000000,0.29000000,-0.09000000,0.04000000,0.30000000,-0.02000000
874,0,-0.00700000,0.00800000,1.00200000,0.10000000,0.11000000,0.10000000,0.04000000,0.30000000,-0.02000000
875,0,-0.00300000,-0.00500000,1.00100000,-0.19000000,-0.11000000,-0.15000000,0.04000000,0.30000000,-0.02000000
876,0,-0.00500000,-0.00000000,1.00200000,-0.03000000,-0.03000000,-0.03000000,0.04000000,0.30000000,-0.02000000
877,0,0.00000000,-0.00100000,1.00100000,-0.03000000,0.12000000,0.03000000,0.04000000,0.30000000,-0.02000000
878,0,-0.00700000,0.00100000,1.00200000,-0.00000000,-0.26000000,0.00000000,0.04000000,0.29000000,-0.02000000
879,0,-0.00900000,0.00300000,1.00400000,0.11000000,0.16000000,-0.03000000,0.04000000,0.29000000,-0.02000000
880,0,-0.00400000,0.00200000,1.00100000,0.08000000,0.06000000,0.19000000,0.04000000,0.29000000,-0.02000000
881,0,-0.00400000,0.00700000,1.00600000,0.06000000,0.04000000,-0.06000000,0.04000000,0.30000000,-0.02000000
882,0,-0.00400000,-0.00100000,0.99800000,0.04000000,-0.14000000,-0.08000000,0.04000000,0.29000000,-0.02000000
883,0,-0.01400000,0.00400000,1.00800000,0.25000000,0.12000000,0.03000000,0.04000000,0.29000000,-0.02000000
884,0,-0.01000000,-0.00100000,1.00100000,0.19000000,0.09000000,0.17000000,0.04000000,0.30000000,-0.02000000
885,0,-0.00100000,-0.00000000,0.99900000,0.18000000,0.26000000,-0.35000000,0.04000000,0.30000000,-0.02000000
886,0,-0.00600000,-0.00100000,0.99900000,-0.07000000,-0.18000000,-0.05000000,0.04000000,0.30000000,-0.02000000
887,0,-0.00300000,-0.00100000,0.99900000,-0.03000000,0.19000000,-0.09000000,0.04000000,0.30000000,-0.02000000
888,0,-0.00700000,0.00100000,0.99600000,0.28000000,-0.24000000,0.04000000,0.04000000,0.30000000,-0.02000000
889,0,-0.00500000,0.00100000,0.99600000,-0.14000000,-0.07000000,-0.00000000,0.04000000,0.30000000,-0.02000000
890,0,-0.00800000,-0.00200000,1.00100000,-0.10000000,0.14000000,-0.18000000,0.04000000,0.30000000,-0.02000000
891,0,-0.00400000,0.00100000,1.00100000,0.07000000,0.05000000,0.20000000,0.04000000,0.30000000,-0.02000000
892,0,-0.00500000,0.00100000,1.00100000,-0.16000000,-0.05000000,0.28000000,0.04000000,0.29000000,-0.02000000
893,0,-0.00500000,-0.00300000,1.00000000,0.11000000,0.07000000,-0.10000000,0.04000000,0.29000000,-0.02000000
894,0,-0.00500000,0.00400000,1.00200000,0.06000000,0.24000000,0.02000000,0.04000000,0.29000000,-0.02000000
895,0,-0.00900000,0.00400000,1.00000000,-0.15000000,0.14000000,0.14000000,0.04000000,0.30000000,-0.02000000
896,0,-0.00700000,-0.00100000,1.00200000,-0.08000000,0.23000000,-0.03000000,0.04000000,0.30000000,-0.02000000
897,0,-0.00600000,-0.00200000,0.99900000,0.12000000,-0.15000000,-0.20000000,0.04000000,0.30000000,-0.02000000
898,0,-0.00500000,0.00200000,0.99700000,0.09000000,-0.09000000,-0.00000000,0.04000000,0.30000000,-0.02000000
899,0,-0.00800000,0.00100000,1.00200000,-0.11000000,-0.18000000,0.10000000,0.04000000,0.30000000,-0.02000000
900,0,-0.00700000,0.00100000,0.99500000,0.24000000,-0.02000000,0.07000000,0.05000000,0.30000000,-0.02000000
901,0,-0.00600000,0.00100000,1.00000000,-0.05000000,0.22000000,0.05000000,0.04000000,0.30000000,-0.02000000
902,0,-0.00600000,0.00200000,0.99600000,-0.01000000,-0.08000000,-0.27000000,0.04000000,0.30000000,-0.02000000
903,0,-0.01200000,-0.00300000,1.00200000,0.02000000,-0.09000000,0.01000000,0.05000000,0.30000000,-0.02000000
904,0,-0.00600000,-0.00200000,0.99700000,0.04000000,-0.43000000,-0.03000000,0.05000000,0.30000000,-0.02000000
905,0,-0.00100000,0.00300000,1.00100000,-0.11000000,0.14000000,-0.03000000,0.05000000,0.30000000,-0.02000000
906,0,-0.00400000,0.00000000,0.99600000,0.08000000,0.04000000,0.05000000,0.05000000,0.30000000,-0.02000000
907,0,-0.00300000,0.00400000,1.00200000,-0.09000000,0.03000000,-0.06000000,0.05000000,0.30000000,-0.02000000
908,0,-0.00600000,0.00100000,1.00100000,-0.01000000,-0.06000000,-0.09000000,0.05000000,0.30000000,-0.02000000
909,0,-0.00600000,0.00100000,0.99900000,-0.05000000,0.25000000,-0.05000000,0.05000000,0.30000000,-0.02000000
910,0,-0.00300000,0.00800000,0.99600000,0.06000000,-0.15000000,-0.21000000,0.05000000,0.30000000,-0.02000000
911,0,-0.00400000,0.00100000,1.00200000,0.18000000,0.11000000,0.11000000,0.05000000,0.30000000,-0.02000000
912,0,-0.00600000,-0.00200000,0.99600000,0.07000000,-0.03000000,0.06000000,0.05000000,0.30000000,-0.02000000
913,0,-0.00400000,0.00100000,0.99800000,0.03000000,-0.09000000,-0.07000000,0.05000000,0.30000000,-0.02000000
914,0,-0.00700000,-0.00100000,1.00000000,-0.01000000,-0.14000000,-0.15000000,0.05000000,0.30000000,-0.02000000
915,0,-0.00500000,0.00500000,0.99800000,-0.04000000,0.08000000,-0.41000000,0.05000000,0.29000000,-0.02000000
916,0,-0.00700000,0.00300000,1.00300000,0.28000000,0.19000000,0.16000000,0.05000000,0.29000000,-0.02000000
917,0,0.00200000,-0.00200000,0.99900000,-0.04000000,-0.18000000,-0.30000000,0.05000000,0.29000000,-0.02000000
918,0,-0.00400000,0.00500000,1.00000000,0.05000000,-0.06000000,0.20000000,0.05000000,0.29000000,-0.02000000
919,0,-0.00700000,-0.00100000,0.99800000,-0.15000000,0.10000000,-0.03000000,0.05000000,0.29000000,-0.02000000
920,0,-0.00200000,-0.00200000,0.99700000,-0.13000000,0.16000000,0.07000000,0.05000000,0.29000000,-0.02000000
921,0,-0.00200000,0.00100000,1.00200000,0.02000000,0.33000000,0.13000000,0.05000000,0.29000000,-0.02000000
922,0,0.00000000,0.00100000,1.00100000,0.12000000,-0.04000000,0.08000000,0.05000000,0.29000000,-0.02000000
923,0,-0.00500000,0.00100000,0.99700000,-0.07000000,-0.17000000,0.02000000,0.05000000,0.29000000,-0.02000000
924,0,-0.00600000,0.00200000,1.00500000,-0.06000000,0.02000000,0.53000000,0.05000000,0.29000000,-0.02000000
925,0,-0.00400000,0.00500000,0.99800000,0.09000000,-0.07000000,0.19000000,0.05000000,0.29000000,-0.02000000
926,0,-0.00700000,0.00400000,1.00000000,-0.05000000,-0.03000000,-0.06000000,0.05000000,0.29000000,-0.02000000
927,0,-0.00800000,-0.00100000,1.00300000,0.14000000,0.00000000,-0.10000000,0.05000000,0.29000000,-0.02000000
928,0,-0.00500000,0.00100000,0.99800000,-0.25000000,-0.20000000,0.16000000,0.05000000,0.29000000,-0.02000000
929,0,-0.00500000,0.00300000,0.99800000,0.06000000,-0.13000000,-0.01000000,0.05000000,0.29000000,-0.02000000
930,0,-0.00200000,0.00200000,0.99600000,0.03000000,0.03000000,-0.10000000,0.05000000,0.29000000,-0.02000000
931,0,-0.00800000,-0.00500000,1.00000000,-0.01000000,-0.17000000,0.06000000,0.05000000,0.29000000,-0.02000000
932,0,-0.00800000,-0.00000000,0.99900000,-0.11000000,0.03000000,-0.10000000,0.05000000,0.29000000,-0.02000000
933,0,-0.00700000,-0.00100000,0.99600000,0.08000000,0.22000000,-0.13000000,0.05000000,0.29000000,-0.02000000
934,0,-0.00600000,0.00000000,0.99800000,-0.10000000,-0.14000000,-0.12000000,0.05000000,0.29000000,-0.02000000
935,0,-0.00600000,0.00200000,0.99800000,0.11000000,-0.35000000,-0.14000000,0.05000000,0.29000000,-0.02000000
936,0,-0.00500000,0.00300000,0.99900000,0.18000000,-0.12000000,0.10000000,0.05000000,0.29000000,-0.02000000
937,0,-0.00200000,-0.00000000,0.99500000,0.06000000,0.27000000,-0.22000000,0.05000000,0.29000000,-0.02000000
938,0,-0.00100000,0.00400000,1.00200000,-0.12000000,-0.31000000,-0.25000000,0.05000000,0.29000000,-0.02000000
939,0,-0.00600000,0.00200000,0.99700000,0.08000000,-0.21000000,-0.05000000,0.05000000,0.29000000,-0.02000000
940,0,-0.00500000,0.00000000,0.99900000,0.01000000,-0.11000000,-0.03000000,0.05000000,0.29000000,-0.02000000
941,0,-0.00800000,0.00400000,0.99900000,-0.10000000,0.16000000,-0.25000000,0.05000000,0.29000000,-0.02000000
942,0,-0.00400000,0.00300000,0.99900000,0.09000000,-0.05000000,-0.24000000,0.06000000,0.29000000,-0.02000000
943,0,-0.00300000,0.00100000,0.99600000,0.14000000,0.12000000,-0.04000000,0.06000000,0.29000000,-0.02000000
944,0,-0.00000000,-0.00400000,1.00000000,-0.13000000,-0.03000000,-0.28000000,0.06000000,0.29000000,-0.02000000
945,0,-0.00800000,0.00100000,1.00100000,-0.01000000,0.22000000,0.07000000,0.06000000,0.29000000,-0.02000000
946,0,-0.00400000,0.00300000,1.00300000,0.07000000,0.03000000,0.06000000,0.06000000,0.29000000,-0.02000000
947,0,-0.00400000,0.00000000,0.99500000,-0.24000000,-0.35000000,0.18000000,0.06000000,0.29000000,-0.02000000
948,0,-0.00600000,0.00000000,1.00000000,-0.19000000,0.10000000,0.04000000,0.06000000,0.29000000,-0.02000000
949,0,-0.00300000,0.00100000,0.99900000,0.09000000,-0.05000000,-0.01000000,0.06000000,0.29000000,-0.02000000
950,0,0.00300000,0.00200000,1.00000000,-0.10000000,-0.06000000,0.10000000,0.06000000,0.29000000,-0.02000000
951,0,-0.00500000,-0.00100000,1.00100000,-0.01000000,-0.02000000,0.19000000,0.06000000,0.29000000,-0.02000000
952,0,-0.00600000,0.00500000,1.00300000,-0.14000000,-0.06000000,-0.21000000,0.06000000,0.29000000,-0.02000000
953,0,-0.00500000,0.00400000,0.99500000,-0.10000000,0.04000000,0.02000000,0.06000000,0.29000000,-0.02000000
954,0,-0.00500000,0.00300000,1.00400000,0.09000000,-0.05000000,-0.09000000,0.06000000,0.29000000,-0.02000000
955,0,-0.00800000,-0.00400000,1.00300000,-0.12000000,0.08000000,-0.03000000,0.06000000,0.29000000,-0.02000000
956,0,-0.00600000,0.00100000,0.99800000,-0.04000000,-0.14000000,-0.06000000,0.06000000,0.29000000,-0.02000000
957,0,-0.00400000,0.00200000,1.00000000,-0.10000000,-0.11000000,-0.18000000,0.06000000,0.29000000,-0.02000000
958,0,-0.00800000,0.00600000,1.00000000,-0.01000000,0.17000000,-0.28000000,0.06000000,0.29000000,-0.02000000
959,0,-0.00400000,-0.00000000,1.00000000,0.09000000,0.25000000,-0.15000000,0.06000000,0.29000000,-0.02000000
960,0,-0.00500000,-0.00100000,1.00000000,0.13000000,0.00000000,0.06000000,0.06000000,0.29000000,-0.02000000
961,0,-0.00600000,0.00500000,0.99800000,0.20000000,0.34000000,0.05000000,0.06000000,0.29000000,-0.02000000
962,0,-0.00300000,-0.00100000,1.00000000,-0.05000000,0.07000000,0.06000000,0.06000000,0.29000000,-0.02000000
963,0,-0.00600000,-0.00600000,1.00100000,-0.00000000,-0.02000000,-0.15000000,0.06000000,0.29000000,-0.02000000
964,0,-0.00300000,-0.00100000,1.00000000,-0.16000000,-0.13000000,-0.09000000,0.06000000,0.29000000,-0.02000000
965,0,-0.01000000,0.00000000,0.99700000,0.01000000,-0.03000000,-0.10000000,0.06000000,0.29000000,-0.02000000
966,0,-0.00300000,0.00100000,1.00400000,0.24000000,-0.16000000,0.03000000,0.06000000,0.29000000,-0.02000000
967,0,-0.01100000,0.00600000,1.00100000,-0.13000000,0.10000000,-0.15000000,0.06000000,0.29000000,-0.02000000
968,0,-0.00800000,0.00500000,1.00500000,-0.10000000,-0.00000000,0.02000000,0.06000000,0.29000000,-0.02000000
969,0,-0.00700000,-0.00100000,0.99900000,-0.15000000,0.11000000,0.06000000,0.06000000,0.29000000,-0.02000000
970,0,-0.00800000,-0.00200000,0.99900000,-0.13000000,-0.11000000,0.00000000,0.06000000,0.29000000,-0.02000000
971,0,-0.00400000,-0.00100000,0.99800000,-0.01000000,0.11000000,-0.14000000,0.06000000,0.29000000,-0.02000000
972,0,-0.00500000,-0.00000000,1.00200000,-0.15000000,0.13000000,0.03000000,0.06000000,0.29000000,-0.02000000
973,0,-0.00400000,0.00200000,1.00300000,0.18000000,0.23000000,0.08000000,0.06000000,0.29000000,-0.02000000
974,0,-0.00800000,0.00100000,1.00100000,0.06000000,0.23000000,0.14000000,0.06000000,0.30000000,-0.02000000
975,0,-0.00700000,0.00300000,0.99800000,0.10000000,0.40000000,-0.14000000,0.06000000,0.30000000,-0.02000000
976,0,-0.01200000,-0.00200000,0.99800000,0.09000000,0.07000000,0.19000000,0.06000000,0.30000000,-0.02000000
977,0,-0.00900000,-0.00100000,1.00100000,-0.01000000,-0.05000000,0.37000000,0.06000000,0.30000000,-0.02000000
978,0,-0.00900000,-0.00300000,0.99600000,-0.20000000,-0.07000000,-0.03000000,0.06000000,0.29000000,-0.02000000
979,0,-0.00500000,0.00400000,0.99800000,-0.01000000,-0.20000000,-0.10000000,0.06000000,0.29000000,-0.02000000
980,0,-0.00700000,0.00200000,0.99800000,-0.17000000,-0.13000000,-0.09000000,0.06000000,0.29000000,-0.02000000
981,0,-0.00900000,0.00400000,0.99800000,-0.00000000,-0.24000000,0.13000000,0.06000000,0.30000000,-0.02000000
982,0,-0.01100000,-0.00500000,0.99900000,-0.14000000,0.01000000,0.11000000,0.06000000,0.30000000,-0.02000000
983,0,-0.00500000,0.00200000,0.99800000,-0.02000000,-0.14000000,-0.18000000,0.06000000,0.30000000,-0.02000000
984,0,-0.00300000,0.00200000,0.99800000,0.14000000,-0.13000000,-0.06000000,0.06000000,0.30000000,-0.02000000
985,0,-0.00500000,0.00200000,0.99800000,0.01000000,0.04000000,-0.06000000,0.06000000,0.30000000,-0.02000000
986,0,-0.00300000,-0.00100000,0.99900000,-0.16000000,-0.01000000,-0.03000000,0.06000000,0.29000000,-0.02000000
987,0,-0.00100000,0.00100000,0.99700000,0.13000000,0.10000000,-0.23000000,0.06000000,0.29000000,-0.02000000
988,0,-0.00600000,-0.00100000,0.99600000,-0.02000000,0.26000000,0.27000000,0.06000000,0.29000000,-0.02000000
989,0,-0.00700000,0.00200000,0.99800000,-0.17000000,-0.02000000,-0.04000000,0.06000000,0.29000000,-0.02000000
990,0,-0.00700000,0.00100000,1.00000000,0.18000000,-0.02000000,-0.16000000,0.06000000,0.30000000,-0.02000000
991,0,-0.00500000,0.00200000,0.99700000,0.03000000,0.02000000,-0.05000000,0.06000000,0.29000000,-0.02000000
992,0,-0.00300000,0.00400000,1.00200000,-0.08000000,0.06000000,0.04000000,0.06000000,0.29000000,-0.02000000
993,0,-0.00600000,-0.00400000,1.00200000,0.04000000,-0.03000000,-0.04000000,0.06000000,0.29000000,-0.02000000
994,0,-0.00300000,-0.00000000,0.99800000,0.13000000,-0.03000000,-0.04000000,0.06000000,0.29000000,-0.02000000
995,0,-0.00300000,-0.00200000,1.00200000,-0.14000000,0.16000000,-0.09000000,0.06000000,0.30000000,-0.02000000
996,0,-0.00300000,0.00200000,1.00200000,0.20000000,-0.01000000,0.12000000,0.06000000,0.29000000,-0.02000000
997,0,-0.00300000,0.00400000,0.99900000,-0.13000000,0.06000000,-0.05000000,0.06000000,0.29000000,-0.02000000
998,0,-0.01000000,-0.00000000,0.99600000,0.05000000,-0.06000000,0.07000000,0.06000000,0.29000000,-0.02000000
999,0,-0.00600000,0.00100000,0.99800000,0.10000000,-0.21000000,-0.08000000,0.06000000,0.29000000,-0.02000000
1000,0,-0.00200000,0.00100000,1.00300000,0.16000000,0.06000000,-0.19000000,0.06000000,0.29000000,-0.02000000
1001,8,-0.00800000,0.00500000,0.99900000,-0.08000000,-0.21000000,0.10000000,0.06000000,0.29000000,-0.02000000
1002,8,-0.00700000,0.00300000,0.99900000,-0.18000000,-0.03000000,-0.01000000,0.06000000,0.29000000,-0.02000000
1003,8,-0.00800000,-0.00000000,1.00000000,0.09000000,0.15000000,0.08000000,0.06000000,0.29000000,-0.02000000
1004,8,-0.00500000,0.00100000,1.00100000,-0.19000000,0.06000000,-0.13000000,0.06000000,0.29000000,-0.02000000
1005,8,-0.00600000,0.00300000,1.00100000,0.01000000,-0.02000000,0.07000000,0.06000000,0.29000000,-0.02000000
1006,8,-0.00600000,0.00100000,1.00400000,0.15000000,0.10000000,-0.21000000,0.06000000,0.29000000,-0.02000000
1007,8,-0.00800000,-0.00200000,0.99800000,0.21000000,-0.02000000,0.16000000,0.06000000,0.29000000,-0.02000000
1008,8,-0.00500000,-0.00000000,1.00100000,-0.05000000,-0.18000000,0.06000000,0.06000000,0.29000000,-0.02000000
1009,8,-0.00200000,0.00200000,0.99700000,0.25000000,0.15000000,-0.00000000,0.06000000,0.29000000,-0.02000000
1010,8,-0.00300000,-0.00100000,1.00100000,-0.02000000,-0.07000000,0.05000000,0.06000000,0.29000000,-0.02000000
1011,8,-0.00700000,0.00000000,1.00100000,0.01000000,-0.12000000,0.04000000,0.06000000,0.29000000,-0.02000000
1012,8,-0.00400000,0.00000000,1.00200000,0.04000000,-0.17000000,0.21000000,0.06000000,0.29000000,-0.02000000
1013,8,-0.00400000,0.00100000,0.99800000,0.22000000,0.04000000,0.14000000,0.06000000,0.29000000,-0.02000000
1014,8,-0.00200000,0.00300000,1.00000000,-0.13000000,0.06000000,0.05000000,0.06000000,0.29000000,-0.02000000
1015,8,-0.00000000,-0.00000000,1.00000000,0.04000000,-0.03000000,-0.00000000,0.06000000,0.29000000,-0.01000000
1016,8,-0.00700000,-0.00100000,0.99900000,-0.05000000,-0.29000000,-0.15000000,0.06000000,0.29000000,-0.02000000
1017,8,-0.00700000,0.00200000,0.99700000,-0.16000000,-0.02000000,-0.18000000,0.06000000,0.29000000,-0.02000000
1018,8,-0.00800000,-0.00000000,1.00700000,-0.07000000,0.06000000,-0.04000000,0.06000000,0.29000000,-0.02000000
1019,8,-0.00400000,-0.00500000,0.99700000,0.13000000,-0.16000000,0.06000000,0.06000000,0.29000000,-0.02000000
1020,8,0.00000000,0.00500000,1.00100000,0.12000000,0.04000000,-0.18000000,0.06000000,0.29000000,-0.02000000
1021,8,-0.00800000,-0.00400000,1.00100000,0.18000000,-0.28000000,0.06000000,0.06000000,0.29000000,-0.02000000
1022,8,-0.00300000,0.00600000,1.00300000,0.07000000,0.02000000,-0.17000000,0.06000000,0.29000000,-0.02000000
1023,8,-0.00700000,-0.00200000,0.99200000,0.03000000,-0.17000000,-0.03000000,0.06000000,0.29000000,-0.02000000
1024,8,-0.00600000,0.00500000,0.99900000,-0.12000000,0.02000000,-0.21000000,0.06000000,0.29000000,-0.02000000
1025,8,-0.00800000,0.00200000,0.99600000,-0.19000000,-0.04000000,-0.07000000,0.06000000,0.29000000,-0.02000000
1026,8,-0.00400000,0.00000000,0.99700000,0.07000000,0.07000000,-0.09000000,0.06000000,0.29000000,-0.02000000
1027,8,-0.00200000,0.00200000,0.99600000,0.10000000,-0.11000000,0.10000000,0.06000000,0.29000000,-0.02000000
1028,8,-0.00100000,0.00500000,0.99800000,0.18000000,0.01000000,0.01000000,0.06000000,0.29000000,-0.02000000
1029,8,-0.00700000,0.00300000,1.00000000,-0.01000000,-0.14000000,0.02000000,0.06000000,0.29000000,-0.02000000
1030,8,-0.00400000,0.00200000,1.00000000,-0.25000000,0.11000000,-0.15000000,0.06000000,0.29000000,-0.02000000
1031,8,-0.00400000,0.00000000,1.00300000,-0.04000000,0.04000000,0.10000000,0.06000000,0.29000000,-0.02000000
1032,8,-0.00400000,0.00000000,0.99800000,-0.17000000,-0.08000000,-0.08000000,0.06000000,0.29000000,-0.02000000
1033,8,-0.00500000,0.00000000,0.99900000,0.09000000,-0.19000000,-0.07000000,0.06000000,0.29000000,-0.02000000
1034,8,-0.00700000,-0.00000000,1.00100000,0.05000000,-0.08000000,0.28000000,0.06000000,0.29000000,-0.02000000
1035,8,-0.00500000,-0.00100000,1.00000000,0.29000000,-0.03000000,-0.13000000,0.06000000,0.29000000,-0.02000000
1036,8,-0.00300000,-0.00000000,1.00200000,-0.04000000,-0.02000000,0.05000000,0.06000000,0.29000000,-0.02000000
1037,8,-0.00100000,0.00000000,1.00400000,0.16000000,0.09000000,-0.12000000,0.06000000,0.29000000,-0.02000000
1038,8,-0.00500000,0.00100000,1.00100000,-0.01000000,0.14000000,-0.02000000,0.06000000,0.29000000,-0.02000000
1039,8,-0.01400000,0.00200000,1.00200000,-0.04000000,-0.21000000,0.01000000,0.06000000,0.29000000,-0.02000000
1040,8,-0.00200000,0.00300000,1.00100000,-0.14000000,-0.08000000,0.10000000,0.06000000,0.29000000,-0.02000000
1041,8,-0.00400000,-0.00100000,1.00300000,0.23000000,0.06000000,-0.00000000,0.06000000,0.29000000,-0.02000000
1042,8,-0.00700000,0.00400000,1.00700000,0.10000000,-0.04000000,-0.16000000,0.06000000,0.29000000,-0.02000000
1043,8,-0.00100000,0.00000000,1.00300000,-0.00000000,-0.25000000,0.01000000,0.06000000,0.29000000,-0.02000000
1044,8,-0.00500000,-0.00100000,1.00300000,0.03000000,0.10000000,0.13000000,0.07000000,0.29000000,-0.02000000
1045,8,-0.00500000,0.00500000,1.00200000,-0.07000000,-0.08000000,0.10000000,0.07000000,0.29000000,-0.02000000
1046,8,-0.00700000,0.00000000,0.99500000,-0.00000000,0.16000000,-0.07000000,0.06000000,0.29000000,-0.02000000
1047,8,-0.00900000,0.00000000,1.00000000,0.03000000,-0.13000000,-0.11000000,0.06000000,0.29000000,-0.02000000
1048,8,-0.00800000,0.00200000,0.99800000,-0.04000000,0.07000000,0.10000000,0.06000000,0.29000000,-0.02000000
1049,8,-0.00500000,-0.00200000,0.99900000,-0.07000000,0.05000000,0.05000000,0.06000000,0.29000000,-0.02000000
1050,8,-0.00500000,-0.00100000,0.99900000,0.07000000,-0.10000000,0.11000000,0.06000000,0.29000000,-0.02000000
1051,8,-0.00400000,-0.00200000,1.00300000,0.03000000,-0.11000000,0.05000000,0.06000000,0.29000000,-0.02000000
1052,8,-0.00600000,0.00200000,0.99600000,-0.18000000,-0.13000000,-0.03000000,0.07000000,0.29000000,-0.02000000
1053,8,-0.00700000,0.00100000,1.00100000,-0.08000000,-0.21000000,-0.25000000,0.06000000,0.29000000,-0.02000000
1054,8,-0.00100000,0.00400000,1.00100000,0.03000000,-0.04000000,0.12000000,0.06000000,0.29000000,-0.02000000
1055,8,-0.00200000,0.00100000,1.00400000,0.07000000,0.03000000,0.01000000,0.06000000,0.29000000,-0.02000000
1056,8,-0.00300000,-0.00100000,1.00200000,0.08000000,-0.18000000,0.13000000,0.06000000,0.29000000,-0.02000000
1057,8,-0.00700000,0.00500000,1.00200000,0.06000000,-0.06000000,-0.09000000,0.06000000,0.29000000,-0.02000000
1058,8,0.00100000,0.00100000,0.99900000,-0.16000000,0.14000000,0.32000000,0.06000000,0.29000000,-0.02000000
1059,8,-0.00500000,0.00500000,1.00100000,-0.16000000,0.01000000,0.16000000,0.06000000,0.29000000,-0.02000000
1060,8,-0.00300000,0.00100000,1.00300000,0.16000000,-0.05000000,0.17000000,0.06000000,0.29000000,-0.02000000
1061,8,-0.00500000,0.00100000,0.99900000,0.28000000,0.00000000,-0.34000000,0.06000000,0.29000000,-0.02000000
1062,8,-0.00100000,0.00500000,1.00200000,0.08000000,0.10000000,0.16000000,0.06000000,0.29000000,-0.02000000
1063,8,-0.00600000,0.00500000,1.00400000,0.05000000,0.12000000,-0.50000000,0.06000000,0.29000000,-0.02000000
1064,8,-0.00700000,-0.00000000,1.00000000,-0.15000000,-0.09000000,-0.05000000,0.06000000,0.29000000,-0.02000000
1065,8,-0.00800000,0.00100000,0.99800000,0.10000000,-0.22000000,0.01000000,0.06000000,0.29000000,-0.02000000
1066,8,-0.00200000,0.00600000,1.00000000,-0.02000000,-0.08000000,-0.03000000,0.06000000,0.29000000,-0.02000000
1067,8,-0.00500000,0.00500000,1.00500000,-0.13000000,-0.14000000,0.07000000,0.06000000,0.29000000,-0.02000000
1068,8,0.00000000,0.00100000,1.00500000,-0.17000000,0.18000000,-0.06000000,0.06000000,0.29000000,-0.02000000
1069,8,-0.00900000,0.00200000,1.00000000,-0.05000000,-0.05000000,0.05000000,0.06000000,0.29000000,-0.02000000
1070,8,-0.01100000,0.00100000,0.99500000,0.08000000,0.01000000,0.13000000,0.06000000,0.29000000,-0.02000000
1071,8,-0.00800000,0.00200000,0.99900000,-0.12000000,0.00000000,0.25000000,0.06000000,0.29000000,-0.02000000
1072,8,-0.00500000,0.00200000,1.00300000,-0.07000000,0.06000000,0.05000000,0.06000000,0.29000000,-0.02000000
1073,8,-0.00800000,0.00500000,0.99900000,0.17000000,-0.14000000,0.04000000,0.06000000,0.29000000,-0.02000000
1074,8,-0.00100000,0.00100000,1.00000000,-0.08000000,0.05000000,-0.06000000,0.06000000,0.29000000,-0.02000000
1075,8,-0.00300000,-0.00300000,0.99800000,0.01000000,0.08000000,-0.01000000,0.06000000,0.29000000,-0.02000000
1076,8,-0.00700000,0.00300000,0.99800000,0.03000000,0.12000000,0.30000000,0.06000000,0.29000000,-0.02000000
1077,8,-0.00200000,0.00100000,1.00200000,0.26000000,-0.14000000,0.10000000,0.06000000,0.29000000,-0.02000000
1078,8,-0.00200000,0.00500000,0.99900000,0.31000000,0.24000000,-0.06000000,0.06000000,0.29000000,-0.02000000
1079,8,-0.00700000,0.00100000,0.99900000,0.36000000,-0.08000000,0.13000000,0.06000000,0.29000000,-0.02000000
1080,8,-0.01300000,0.00100000,0.99600000,-0.12000000,0.06000000,0.21000000,0.06000000,0.29000000,-0.02000000
1081,8,-0.00700000,-0.00300000,0.99600000,-0.04000000,-0.05000000,-0.02000000,0.06000000,0.29000000,-0.02000000
1082,8,-0.00800000,-0.00400000,1.00400000,0.05000000,-0.04000000,0.01000000,0.06000000,0.29000000,-0.02000000
1083,8,-0.00300000,-0.00200000,1.00100000,0.20000000,0.14000000,-0.02000000,0.06000000,0.30000000,-0.02000000
1084,8,-0.00100000,-0.00100000,0.99900000,0.13000000,-0.05000000,-0.15000000,0.06000000,0.30000000,-0.02000000
1085,8,-0.00600000,0.00400000,1.00100000,0.04000000,0.06000000,0.00000000,0.06000000,0.30000000,-0.02000000
1086,8,-0.00600000,0.00000000,0.99700000,-0.24000000,0.04000000,-0.13000000,0.06000000,0.30000000,-0.02000000
1087,8,-0.00900000,0.00100000,1.00000000,-0.01000000,0.01000000,-0.08000000,0.06000000,0.30000000,-0.02000000
1088,8,-0.00600000,0.00200000,1.00200000,0.11000000,0.20000000,0.18000000,0.06000000,0.30000000,-0.02000000
1089,8,-0.00900000,0.00800000,0.99500000,0.01000000,-0.17000000,0.02000000,0.06000000,0.29000000,-0.02000000
1090,8,0.00100000,0.00100000,1.00200000,-0.01000000,-0.08000000,0.06000000,0.06000000,0.29000000,-0.02000000
1091,8,-0.00600000,-0.00200000,0.99900000,-0.12000000,0.15000000,-0.07000000,0.06000000,0.29000000,-0.02000000
1092,8,-0.00400000,-0.00300000,1.00100000,-0.27000000,0.08000000,-0.00000000,0.06000000,0.29000000,-0.02000000
1093,8,-0.00500000,0.00500000,1.00200000,0.13000000,-0.06000000,0.12000000,0.06000000,0.29000000,-0.02000000
1094,8,-0.00700000,0.00100000,1.00000000,-0.15000000,-0.06000000,0.13000000,0.06000000,0.29000000,-0.02000000
1095,8,-0.00200000,-0.00100000,0.99900000,0.11000000,0.15000000,-0.16000000,0.06000000,0.29000000,-0.02000000
1096,8,-0.00900000,0.00200000,0.99500000,-0.13000000,0.06000000,-0.24000000,0.06000000,0.29000000,-0.02000000
1097,8,-0.00500000,0.00300000,1.00200000,0.09000000,0.22000000,0.21000000,0.06000000,0.29000000,-0.02000000
1098,8,-0.00500000,-0.00100000,0.99900000,-0.09000000,0.16000000,-0.01000000,0.06000000,0.29000000,-0.02000000
1099,8,-0.01100000,0.00200000,0.99700000,-0.00000000,0.25000000,0.20000000,0.06000000,0.30000000,-0.02000000
1100,8,-0.00300000,0.00200000,1.00200000,0.09000000,0.06000000,0.08000000,0.06000000,0.30000000,-0.02000000
1101,8,-0.00500000,-0.00100000,0.99400000,0.12000000,0.15000000,0.09000000,0.06000000,0.30000000,-0.02000000
1102,8,-0.00400000,0.00000000,1.00400000,0.10000000,0.01000000,0.11000000,0.06000000,0.29000000,-0.02000000
