Measurement Count,IMU_MODE,Accel_X,Accel_Y,Accel_Z,Gyro_X,Gyro_Y,Gyro_Z,X_DEL_ANG,Y_DEL_ANG,Z_DEL_ANG,ROLL,PITCH,HEADING
1,0,-0.01000000,0.17300000,0.99200000,-0.25000000,0.14000000,-0.04000000,-0.00024822,0.00013900,-0.00003972,9.71000000,0.47000000,0.00000000
2,0,-0.00700000,0.17300000,0.98400000,-0.17000000,0.04000000,0.00000000,-0.00042090,0.00017963,-0.00003972,9.87000000,0.50000000,0.00000000
3,0,-0.01000000,0.17200000,0.98700000,-0.16000000,0.13000000,0.03000000,-0.00057987,0.00030880,-0.00000991,9.86000000,0.47000000,0.00000000
4,0,-0.01200000,0.17000000,0.98700000,-0.33000000,-0.03000000,0.04000000,-0.00090697,0.00027906,0.00002974,9.85000000,0.49000000,0.00000000
5,0,-0.00900000,0.17300000,0.98500000,-0.20000000,0.27000000,-0.13000000,-0.00114713,0.00060327,-0.00012636,9.86000000,0.50000000,0.00000000
6,0,-0.00900000,0.17100000,0.98500000,-0.29000000,0.29000000,0.10000000,-0.00149370,0.00094984,-0.00000685,9.85000000,0.50000000,0.00000000
7,0,-0.00900000,0.17100000,0.98700000,-0.17000000,-0.27000000,0.01000000,-0.00169418,0.00063142,0.00000494,9.86000000,0.50000000,0.00000000
8,0,-0.00600000,0.17200000,0.98700000,-0.11000000,-0.12000000,0.02000000,-0.00182792,0.00048553,0.00002925,9.86000000,0.49000000,0.00000000
9,0,-0.00700000,0.17600000,0.99300000,-0.09000000,0.08000000,0.16000000,-0.00193481,0.00058054,0.00021928,9.85000000,0.49000000,0.00000000
10,0,-0.01300000,0.17300000,0.98600000,-0.35000000,0.07000000,0.13000000,-0.00244053,0.00068169,0.00040712,9.84000000,0.51000000,0.00000000
11,0,-0.01000000,0.17100000,0.98900000,-0.34000000,-0.04000000,0.05000000,-0.00277422,0.00064243,0.00045619,9.84000000,0.51000000,0.00000000
12,0,-0.01400000,0.17200000,0.98500000,-0.21000000,0.17000000,0.03000000,-0.00303865,0.00085649,0.00049397,9.85000000,0.53000000,0.00000000
13,0,-0.00600000,0.16500000,0.98700000,-0.04000000,0.06000000,-0.11000000,-0.00308648,0.00092824,0.00036243,9.84000000,0.53000000,0.00000000
14,0,-0.01200000,0.17100000,0.98800000,-0.31000000,0.11000000,0.04000000,-0.00357978,0.00110328,0.00042609,9.84000000,0.53000000,0.01000000
15,0,-0.00600000,0.17300000,0.98600000,-0.08000000,0.05000000,-0.13000000,-0.00368256,0.00116752,0.00025907,9.84000000,0.52000000,0.00000000
16,0,-0.00800000,0.17100000,0.98900000,-0.19000000,0.21000000,-0.23000000,-0.00392335,0.00143365,-0.00003240,9.84000000,0.52000000,0.01000000
17,0,-0.01000000,0.17100000,0.98700000,-0.34000000,0.13000000,0.05000000,-0.00435285,0.00159787,0.00003076,9.84000000,0.52000000,0.00000000
18,0,-0.01000000,0.17300000,0.99100000,-0.59000000,0.01000000,-0.02000000,-0.00528244,0.00161363,-0.00000075,9.82000000,0.52000000,0.00000000
19,0,-0.00700000,0.16900000,0.98800000,-0.70000000,0.16000000,0.02000000,-0.00624198,0.00183295,0.00002666,9.81000000,0.53000000,0.01000000
20,0,-0.01000000,0.16900000,0.98900000,-0.45000000,-0.02000000,0.28000000,-0.00695174,0.00180140,0.00046829,9.81000000,0.53000000,0.01000000
21,0,-0.00900000,0.16700000,0.98800000,-0.34000000,-0.12000000,-0.15000000,-0.00758908,0.00157646,0.00018711,9.81000000,0.53000000,0.01000000
22,0,-0.00900000,0.17000000,0.98600000,-0.52000000,-0.03000000,-0.13000000,-0.00822998,0.00153948,0.00002688,9.80000000,0.53000000,0.01000000
23,0,-0.00800000,0.16800000,0.98700000,0.10000000,0.25000000,0.02000000,-0.00811760,0.00182043,0.00004936,9.80000000,0.53000000,0.01000000
24,0,-0.01000000,0.16500000,0.98700000,-0.08000000,0.04000000,0.15000000,-0.00821160,0.00186743,0.00022561,9.79000000,0.54000000,0.00000000
25,0,-0.01100000,0.16800000,0.99100000,-0.12000000,-0.09000000,0.10000000,-0.00833827,0.00177243,0.00033117,9.79000000,0.54000000,0.00000000
26,0,-0.00800000,0.16700000,0.98400000,-0.09000000,0.24000000,0.05000000,-0.00843377,0.00202708,0.00038422,9.78000000,0.54000000,0.01000000
27,0,-0.00600000,0.17100000,0.98600000,-0.29000000,-0.10000000,0.05000000,-0.00876201,0.00191389,0.00044082,9.77000000,0.53000000,0.01000000
28,0,-0.00900000,0.16800000,0.99400000,-0.22000000,-0.09000000,0.04000000,-0.01169704,0.00071320,0.00097446,9.77000000,0.53000000,0.01000000
29,0,-0.01100000,0.17300000,0.99100000,-0.38000000,0.18000000,0.32000000,-0.01215316,0.00092925,0.00135856,9.76000000,0.53000000,0.01000000
30,0,-0.00600000,0.17200000,0.98700000,-0.08000000,0.32000000,-0.09000000,-0.01224785,0.00130801,0.00125203,9.76000000,0.53000000,0.01000000
31,0,-0.01000000,0.16700000,0.98800000,-0.50000000,0.07000000,0.05000000,-0.01279006,0.00138392,0.00130625,9.76000000,0.53000000,0.01000000
32,0,-0.00800000,0.17300000,0.98800000,-0.61000000,0.18000000,0.16000000,-0.01345273,0.00157946,0.00148007,9.75000000,0.54000000,0.01000000
33,0,-0.00500000,0.16700000,0.98900000,-0.26000000,-0.11000000,-0.10000000,-0.01373282,0.00146096,0.00137234,9.74000000,0.53000000,0.01000000
34,0,-0.01100000,0.16500000,0.99300000,-0.44000000,0.11000000,-0.28000000,-0.01425707,0.00159202,0.00103873,9.74000000,0.53000000,0.01000000
35,0,-0.00800000,0.17100000,0.99300000,-0.07000000,-0.01000000,0.36000000,-0.01813557,0.00103795,0.02098530,9.74000000,0.53000000,0.01000000
36,0,-0.01200000,0.16600000,0.98800000,0.01000000,-0.06000000,-0.04000000,-0.01812498,0.00097442,0.02094294,9.74000000,0.53000000,0.01000000
37,0,-0.00600000,0.16700000,0.98800000,0.04000000,0.03000000,-0.06000000,-0.01808224,0.00100647,0.02087884,9.74000000,0.53000000,0.01000000
38,0,-0.01300000,0.17000000,0.98900000,-0.21000000,0.11000000,0.16000000,-0.01829896,0.00111999,0.02104395,9.74000000,0.52000000,0.01000000
39,0,-0.01200000,0.16700000,0.98900000,-0.31000000,0.20000000,-0.03000000,-0.01861207,0.00132200,0.02101365,9.73000000,0.53000000,0.01000000
40,0,-0.00600000,0.16700000,0.98500000,-0.09000000,0.12000000,0.18000000,-0.01870201,0.00144191,0.02119353,9.73000000,0.53000000,0.01000000
41,0,-0.00600000,0.16700000,0.98900000,-0.24000000,0.13000000,0.05000000,-0.03200545,0.00864794,0.02396508,9.73000000,0.53000000,0.01000000
42,0,-0.00900000,0.16700000,0.99300000,-0.07000000,-0.03000000,-0.15000000,-0.03208014,0.00861593,0.02380502,9.73000000,0.53000000,0.01000000
43,0,-0.00500000,0.17100000,0.98600000,-0.11000000,-0.19000000,-0.12000000,-0.03219250,0.00842185,0.02368244,9.73000000,0.52000000,0.01000000
44,0,-0.00900000,0.16300000,0.98700000,-0.25000000,0.16000000,0.08000000,-0.03244388,0.00858273,0.02376289,9.72000000,0.52000000,0.01000000
45,0,-0.00600000,0.16600000,0.98400000,-0.15000000,0.13000000,-0.09000000,-0.03259450,0.00871326,0.02367252,9.72000000,0.52000000,0.01000000
46,0,-0.00800000,0.16200000,0.98800000,-0.36000000,0.12000000,-0.03000000,-0.03295511,0.00883347,0.02364247,9.72000000,0.52000000,0.01000000
47,0,-0.00700000,0.17000000,0.98600000,-0.24000000,-0.02000000,0.22000000,-0.04649447,0.00770519,0.03605355,9.71000000,0.52000000,0.01000000
48,0,-0.00700000,0.16500000,0.98800000,-0.22000000,0.06000000,0.03000000,-0.04673120,0.00776975,0.03608583,9.71000000,0.52000000,0.01000000
49,0,-0.01000000,0.16800000,0.98600000,-0.04000000,-0.16000000,0.15000000,-0.04677184,0.00760719,0.03623823,9.71000000,0.52000000,0.01000000
50,0,-0.00400000,0.16800000,0.99000000,-0.06000000,0.08000000,0.01000000,-0.04683205,0.00768746,0.03624826,9.70000000,0.52000000,0.01000000
51,0,-0.01100000,0.16700000,0.98400000,-0.12000000,0.06000000,-0.09000000,-0.04695228,0.00774758,0.03615809,9.70000000,0.51000000,0.01000000
52,0,-0.01100000,0.16600000,0.99200000,-0.07000000,-0.12000000,-0.04000000,-0.04702283,0.00762663,0.03611777,9.70000000,0.51000000,0.01000000
53,0,-0.00800000,0.16800000,0.99000000,0.05000000,0.35000000,0.08000000,-0.04424996,0.02703674,0.04055437,9.69000000,0.52000000,0.01000000
54,0,-0.00700000,0.16500000,0.98600000,-0.05000000,0.07000000,0.07000000,-0.04430355,0.02711176,0.04062939,9.69000000,0.52000000,0.01000000
55,0,-0.00600000,0.16800000,0.98900000,-0.17000000,0.05000000,0.09000000,-0.04447501,0.02716219,0.04072017,9.69000000,0.52000000,0.01000000
56,0,-0.00700000,0.16200000,0.98700000,-0.42000000,0.09000000,0.06000000,-0.04489112,0.02725136,0.04077961,9.69000000,0.52000000,0.01000000
57,0,-0.01200000,0.16700000,0.98200000,-0.23000000,-0.08000000,0.06000000,-0.04511976,0.02717183,0.04083926,9.68000000,0.52000000,0.01000000
58,0,-0.00600000,0.16600000,0.98800000,-0.25000000,0.16000000,-0.19000000,-0.04537036,0.02733222,0.04064880,9.68000000,0.52000000,0.01000000
59,0,-0.00800000,0.17100000,0.98600000,0.02000000,-0.20000000,-0.04000000,-0.04426066,0.01623525,0.03842940,9.68000000,0.52000000,0.01000000
60,0,-0.00800000,0.17200000,0.98500000,-0.07000000,0.02000000,0.25000000,-0.04433557,0.01625665,0.03869693,9.68000000,0.52000000,0.01000000
61,0,-0.01000000,0.16800000,0.98700000,-0.25000000,-0.18000000,0.13000000,-0.04458689,0.01607570,0.03882762,9.68000000,0.51000000,0.01000000
62,0,-0.00600000,0.16500000,0.98700000,-0.09000000,0.11000000,-0.08000000,-0.04467674,0.01618552,0.03874775,9.67000000,0.51000000,0.01000000
63,0,-0.00800000,0.16200000,0.98700000,-0.14000000,-0.00000000,-0.03000000,-0.04481665,0.01618552,0.03871777,9.67000000,0.51000000,0.01000000
64,0,-0.01100000,0.16600000,0.98700000,-0.12000000,-0.08000000,-0.15000000,-0.04493820,0.01610449,0.03856584,9.67000000,0.51000000,0.01000000
65,0,-0.00900000,0.16900000,0.98500000,-0.08000000,0.27000000,-0.11000000,-0.04945753,0.03135725,0.03235175,9.66000000,0.51000000,0.01000000
66,0,-0.00600000,0.16600000,0.99000000,-0.29000000,-0.03000000,-0.10000000,-0.04978052,0.03132384,0.03224037,9.66000000,0.50000000,0.01000000
67,0,-0.00700000,0.16500000,0.98800000,-0.29000000,0.07000000,0.16000000,-0.05007357,0.03139457,0.03240206,9.65000000,0.51000000,0.01000000
68,0,-0.00800000,0.16500000,0.98900000,-0.05000000,-0.06000000,-0.10000000,-0.05012356,0.03133459,0.03230208,9.65000000,0.51000000,0.01000000
69,0,-0.00700000,0.16700000,0.98400000,-0.19000000,0.12000000,0.01000000,-0.05031497,0.03145548,0.03231215,9.65000000,0.51000000,0.01000000
70,0,-0.00700000,0.16800000,0.98300000,0.06000000,-0.02000000,-0.24000000,-0.05025483,0.03143543,0.03207157,9.65000000,0.51000000,0.01000000
71,0,-0.00900000,0.16800000,0.99000000,-0.18000000,-0.19000000,0.18000000,-0.06023193,0.02090404,0.04204868,9.65000000,0.51000000,0.02000000
72,0,-0.01100000,0.16600000,0.98700000,-0.07000000,-0.24000000,-0.26000000,-0.06030592,0.02065036,0.04177385,9.65000000,0.51000000,0.02000000
73,0,-0.00300000,0.16500000,0.98700000,0.24000000,-0.20000000,0.08000000,-0.06006369,0.02044849,0.04185460,9.64000000,0.50000000,0.02000000
74,0,-0.00300000,0.16800000,0.99000000,-0.27000000,0.07000000,0.12000000,-0.06033170,0.02051797,0.04197372,9.64000000,0.50000000,0.02000000
75,0,-0.00600000,0.16700000,0.98800000,-0.28000000,0.07000000,-0.01000000,-0.06061277,0.02058824,0.04196368,9.64000000,0.50000000,0.02000000
76,0,-0.01200000,0.16500000,0.98900000,-0.23000000,0.10000000,0.16000000,-0.06084355,0.02068858,0.04212422,9.63000000,0.50000000,0.02000000
77,0,-0.00800000,0.17100000,0.98800000,-0.24000000,0.05000000,-0.15000000,-0.07416564,0.02346402,0.03379791,9.63000000,0.50000000,0.02000000
78,0,-0.00600000,0.16700000,0.98900000,-0.20000000,-0.16000000,-0.13000000,-0.07437747,0.02329455,0.03366022,9.63000000,0.50000000,0.02000000
79,0,-0.01200000,0.16800000,0.99500000,-0.19000000,0.01000000,0.02000000,-0.07456952,0.02330466,0.03368043,9.62000000,0.50000000,0.02000000
80,0,-0.00800000,0.16600000,0.98700000,0.01000000,0.02000000,0.00000000,-0.07455959,0.02332451,0.03368043,9.62000000,0.50000000,0.02000000
81,0,-0.01000000,0.16400000,0.98900000,-0.05000000,0.19000000,0.04000000,-0.07460992,0.02351574,0.03372069,9.62000000,0.50000000,0.02000000
82,0,-0.01000000,0.16400000,0.98900000,0.09000000,-0.25000000,-0.26000000,-0.07451959,0.02326483,0.03345976,9.62000000,0.50000000,0.01000000
83,0,-0.00500000,0.16500000,0.98700000,-0.16000000,0.22000000,0.06000000,-0.08355426,0.03568750,0.03684776,9.61000000,0.50000000,0.01000000
84,0,-0.01000000,0.16300000,0.98100000,0.08000000,0.10000000,0.03000000,-0.08346995,0.03579289,0.03687937,9.61000000,0.50000000,0.01000000
85,0,-0.00300000,0.16300000,0.99100000,0.14000000,-0.01000000,0.03000000,-0.08332948,0.03578286,0.03690948,9.61000000,0.50000000,0.01000000
86,0,-0.00500000,0.16900000,0.99100000,-0.15000000,0.22000000,0.23000000,-0.08347991,0.03600350,0.03714014,9.61000000,0.50000000,0.01000000
87,0,-0.00500000,0.16300000,0.99000000,-0.01000000,-0.07000000,-0.28000000,-0.08348987,0.03593375,0.03686113,9.61000000,0.50000000,0.01000000
88,0,-0.01000000,0.15800000,0.99000000,-0.23000000,0.17000000,0.10000000,-0.08372016,0.03610395,0.03696126,9.61000000,0.50000000,0.01000000
89,0,-0.00300000,0.16600000,0.98800000,-0.21000000,-0.08000000,-0.06000000,-0.09537483,0.03166408,0.03363135,9.60000000,0.50000000,0.01000000
90,0,-0.01400000,0.16500000,0.99000000,0.02000000,0.25000000,0.12000000,-0.09535366,0.03192869,0.03375836,9.60000000,0.50000000,0.01000000
91,0,-0.00500000,0.16000000,0.99200000,-0.15000000,0.30000000,-0.03000000,-0.09550421,0.03222977,0.03372825,9.60000000,0.50000000,0.01000000
92,0,-0.00800000,0.16400000,0.99000000,-0.00000000,-0.17000000,-0.05000000,-0.09550421,0.03205834,0.03367783,9.60000000,0.50000000,0.01000000
93,0,-0.00500000,0.16500000,0.99100000,-0.13000000,-0.03000000,0.12000000,-0.09563492,0.03202818,0.03379850,9.60000000,0.51000000,0.01000000
94,0,-0.01400000,0.16400000,0.98900000,0.09000000,-0.08000000,-0.04000000,-0.09554464,0.03194793,0.03375837,9.60000000,0.50000000,0.01000000
95,0,-0.01200000,0.16300000,0.99200000,0.02000000,0.07000000,0.09000000,-0.09443399,0.03583521,0.03875630,9.60000000,0.50000000,0.01000000
96,0,-0.00800000,0.16400000,0.99100000,0.28000000,0.28000000,-0.06000000,-0.09414163,0.03612757,0.03869365,9.60000000,0.50000000,0.01000000
97,0,-0.00300000,0.16100000,0.99100000,0.12000000,0.16000000,0.02000000,-0.09402180,0.03628734,0.03871362,9.60000000,0.50000000,0.01000000
98,0,-0.00800000,0.16500000,0.99500000,0.04000000,-0.04000000,0.04000000,-0.09398126,0.03624681,0.03875416,9.59000000,0.50000000,0.01000000
99,0,-0.00700000,0.16400000,0.98900000,0.06000000,0.19000000,-0.03000000,-0.09392093,0.03643786,0.03872399,9.59000000,0.50000000,0.02000000
100,0,-0.01200000,0.16200000,0.98400000,-0.06000000,0.18000000,-0.07000000,-0.09398099,0.03661803,0.03865393,9.59000000,0.50000000,0.01000000
101,0,-0.00800000,0.16600000,0.99100000,-0.16000000,-0.11000000,-0.01000000,-0.10332068,0.03019699,0.03807019,9.59000000,0.51000000,0.01000000
102,0,-0.00800000,0.16800000,0.99000000,-0.06000000,-0.13000000,0.01000000,-0.10338296,0.03006206,0.03808057,9.59000000,0.51000000,0.01000000
103,0,-0.00600000,0.16300000,0.98800000,0.07000000,0.03000000,0.01000000,-0.10331363,0.03009178,0.03809048,9.59000000,0.51000000,0.01000000
104,0,-0.01300000,0.16200000,0.98600000,0.09000000,0.12000000,0.11000000,-0.10322472,0.03021032,0.03819914,9.58000000,0.51000000,0.02000000
105,0,-0.00500000,0.16500000,0.98700000,-0.12000000,0.12000000,0.07000000,-0.10334375,0.03032935,0.03826858,9.58000000,0.51000000,0.02000000
106,0,-0.00700000,0.16800000,0.99000000,-0.21000000,0.07000000,-0.35000000,-0.10355365,0.03039932,0.03791874,9.58000000,0.51000000,0.02000000
107,0,-0.00500000,0.16300000,0.98700000,0.04000000,-0.04000000,0.12000000,-0.10140742,0.02825308,0.04435745,9.58000000,0.51000000,0.02000000
108,0,-0.00300000,0.16200000,0.98800000,-0.07000000,0.03000000,0.09000000,-0.10147985,0.02828413,0.04445059,9.58000000,0.51000000,0.02000000
109,0,-0.00900000,0.16300000,0.98900000,-0.22000000,-0.05000000,-0.21000000,-0.10170752,0.02823239,0.04423327,9.57000000,0.51000000,0.02000000
110,0,-0.00900000,0.16600000,0.98800000,0.01000000,0.22000000,0.24000000,-0.10169749,0.02845307,0.04447402,9.57000000,0.51000000,0.02000000
111,0,-0.00300000,0.16400000,0.98700000,0.14000000,-0.01000000,-0.09000000,-0.10155962,0.02844323,0.04438539,9.57000000,0.50000000,0.02000000
112,0,-0.00900000,0.15900000,0.98900000,0.16000000,0.11000000,0.02000000,-0.10140122,0.02855213,0.04440519,9.57000000,0.50000000,0.02000000
113,0,-0.00800000,0.16600000,0.98900000,-0.11000000,-0.05000000,0.00000000,-0.10752168,0.02577010,0.04440519,9.57000000,0.50000000,0.02000000
114,0,-0.00200000,0.16600000,0.98600000,0.13000000,-0.01000000,-0.02000000,-0.10738445,0.02575954,0.04438408,9.57000000,0.50000000,0.02000000
115,0,-0.00600000,0.16400000,0.98800000,-0.13000000,0.05000000,-0.03000000,-0.10751740,0.02581068,0.04435340,9.57000000,0.50000000,0.02000000
116,0,-0.00900000,0.16700000,0.98500000,0.11000000,-0.06000000,-0.01000000,-0.10740604,0.02574993,0.04434328,9.57000000,0.50000000,0.02000000
117,0,-0.00900000,0.16200000,0.98800000,-0.05000000,0.10000000,-0.07000000,-0.10745602,0.02584991,0.04427329,9.56000000,0.50000000,0.02000000
118,0,-0.00700000,0.16000000,0.98600000,-0.09000000,0.28000000,0.20000000,-0.10754609,0.02613012,0.04447344,9.56000000,0.50000000,0.02000000
119,0,-0.00700000,0.16600000,0.98400000,-0.14000000,0.10000000,0.03000000,-0.11543006,0.03176153,0.04616286,9.56000000,0.50000000,0.02000000
120,0,-0.00700000,0.16800000,0.98800000,0.12000000,0.18000000,-0.07000000,-0.11530245,0.03195295,0.04608842,9.56000000,0.50000000,0.02000000
121,0,-0.00700000,0.16300000,0.98600000,-0.07000000,0.08000000,0.08000000,-0.11537270,0.03203324,0.04616871,9.56000000,0.50000000,0.02000000
122,0,-0.00700000,0.16400000,0.98500000,-0.11000000,-0.05000000,0.03000000,-0.11548239,0.03198338,0.04619863,9.56000000,0.50000000,0.02000000
123,0,-0.00600000,0.16300000,0.98600000,-0.11000000,0.08000000,-0.20000000,-0.11559174,0.03206291,0.04599981,9.56000000,0.50000000,0.02000000
124,0,-0.00500000,0.16200000,0.98800000,0.11000000,-0.05000000,-0.17000000,-0.11548205,0.03201305,0.04583029,9.55000000,0.50000000,0.02000000
125,0,-0.00300000,0.16300000,0.98600000,0.14000000,-0.01000000,0.08000000,-0.10771353,0.03145815,0.05026944,9.55000000,0.50000000,0.02000000
126,0,-0.00500000,0.16300000,0.98700000,-0.04000000,-0.05000000,-0.04000000,-0.10775513,0.03140616,0.05022785,9.55000000,0.49000000,0.02000000
127,0,-0.00300000,0.16400000,0.98900000,0.15000000,0.06000000,-0.09000000,-0.10760530,0.03146609,0.05013796,9.55000000,0.49000000,0.02000000
128,0,-0.00800000,0.16400000,0.98900000,-0.17000000,0.14000000,-0.05000000,-0.10777644,0.03160703,0.05008762,9.55000000,0.49000000,0.02000000
129,0,-0.00700000,0.16600000,0.99000000,-0.07000000,0.14000000,-0.10000000,-0.10784613,0.03174640,0.04998807,9.55000000,0.49000000,0.02000000
130,0,-0.00700000,0.16300000,0.98700000,-0.06000000,0.42000000,0.05000000,-0.10790570,0.03216341,0.05003771,9.54000000,0.49000000,0.02000000
131,0,-0.00600000,0.16300000,0.98800000,-0.13000000,0.21000000,-0.12000000,-0.11514117,0.04385148,0.04335882,9.54000000,0.49000000,0.02000000
132,0,-0.01100000,0.16000000,0.99000000,0.06000000,-0.01000000,0.01000000,-0.11507728,0.04384083,0.04336946,9.54000000,0.49000000,0.02000000
133,0,-0.00700000,0.16300000,0.98900000,-0.19000000,0.14000000,0.09000000,-0.11526973,0.04398264,0.04346063,9.53000000,0.49000000,0.02000000
134,0,-0.00900000,0.16200000,0.98900000,0.07000000,0.17000000,0.07000000,-0.11519983,0.04415240,0.04353053,9.53000000,0.49000000,0.02000000
135,0,-0.00400000,0.16600000,0.98800000,0.16000000,0.02000000,-0.26000000,-0.11504028,0.04417234,0.04327126,9.53000000,0.49000000,0.02000000
136,0,-0.00600000,0.16100000,0.98600000,-0.01000000,-0.04000000,-0.14000000,-0.11505027,0.04413241,0.04313149,9.53000000,0.49000000,0.02000000
137,0,-0.00900000,0.15700000,0.98800000,-0.28000000,0.01000000,-0.30000000,-0.13082943,0.04469595,0.02622525,9.53000000,0.49000000,0.02000000
138,0,-0.01100000,0.16400000,0.98600000,-0.14000000,0.22000000,0.06000000,-0.13097504,0.04492477,0.02628765,9.52000000,0.49000000,0.02000000
139,0,-0.01100000,0.16200000,0.98500000,-0.13000000,0.03000000,-0.09000000,-0.13110374,0.04495447,0.02619855,9.52000000,0.49000000,0.02000000
140,0,-0.00700000,0.16200000,0.99000000,0.14000000,0.11000000,0.02000000,-0.13096557,0.04506303,0.02621829,9.52000000,0.48000000,0.02000000
141,0,-0.00700000,0.16000000,0.98900000,-0.11000000,0.12000000,0.06000000,-0.13107440,0.04518175,0.02627765,9.52000000,0.48000000,0.02000000
142,0,-0.00700000,0.16000000,0.99000000,-0.04000000,0.24000000,0.07000000,-0.13111474,0.04542382,0.02634825,9.52000000,0.48000000,0.02000000
143,0,-0.00100000,0.16300000,0.98400000,-0.03000000,-0.12000000,-0.10000000,-0.13278151,0.03875673,0.02079235,9.52000000,0.48000000,0.02000000
144,0,-0.01200000,0.16500000,0.99100000,0.26000000,-0.19000000,0.01000000,-0.13249801,0.03854956,0.02080325,9.52000000,0.48000000,0.02000000
145,0,-0.01000000,0.16000000,0.99100000,-0.06000000,0.18000000,0.12000000,-0.13255969,0.03873458,0.02092660,9.52000000,0.48000000,0.03000000
146,0,-0.00700000,0.16500000,0.98800000,-0.18000000,0.09000000,-0.10000000,-0.13273982,0.03882465,0.02082653,9.51000000,0.48000000,0.02000000
147,0,-0.00300000,0.16300000,0.98800000,0.02000000,-0.04000000,0.07000000,-0.13271982,0.03878465,0.02089653,9.51000000,0.48000000,0.02000000
148,0,-0.00500000,0.16000000,0.98500000,-0.05000000,-0.06000000,-0.07000000,-0.13277060,0.03872372,0.02082544,9.51000000,0.48000000,0.02000000
149,0,-0.00500000,0.16400000,0.98700000,-0.10000000,-0.15000000,0.12000000,-0.13861928,0.02995070,0.02784386,9.51000000,0.48000000,0.02000000
150,0,-0.00300000,0.16200000,0.98500000,-0.29000000,0.09000000,0.03000000,-0.13892118,0.03004439,0.02787509,9.50000000,0.48000000,0.02000000
151,0,-0.00700000,0.15900000,0.99100000,-0.18000000,0.06000000,-0.08000000,-0.13910251,0.03010484,0.02779450,9.50000000,0.48000000,0.03000000
152,0,-0.00500000,0.16200000,0.98500000,-0.19000000,-0.03000000,-0.03000000,-0.13929180,0.03007495,0.02776461,9.50000000,0.48000000,0.03000000
153,0,-0.00600000,0.16500000,0.98700000,-0.32000000,0.10000000,0.05000000,-0.13960868,0.03017398,0.02781412,9.50000000,0.48000000,0.03000000
154,0,-0.00500000,0.16100000,0.98400000,-0.05000000,0.00000000,-0.16000000,-0.13965838,0.03017398,0.02765507,9.49000000,0.48000000,0.03000000
155,0,-0.00200000,0.16100000,0.98400000,0.01000000,-0.13000000,0.11000000,-0.13964828,0.03004264,0.02776620,9.49000000,0.48000000,0.03000000
156,0,-0.00900000,0.16200000,0.99300000,0.19000000,0.17000000,0.02000000,-0.12892504,0.03963711,0.02889497,9.49000000,0.48000000,0.03000000
157,0,-0.00200000,0.16000000,0.98900000,0.08000000,-0.25000000,0.24000000,-0.12884062,0.03937328,0.02914825,9.49000000,0.48000000,0.03000000
158,0,-0.00400000,0.16300000,0.98800000,0.21000000,-0.09000000,-0.03000000,-0.12862670,0.03928160,0.02911769,9.49000000,0.48000000,0.03000000
159,0,-0.00500000,0.16100000,0.98900000,-0.23000000,0.00000000,0.05000000,-0.12885710,0.03928160,0.02916777,9.49000000,0.47000000,0.03000000
160,0,-0.00500000,0.15600000,0.99100000,-0.08000000,0.14000000,0.10000000,-0.12893790,0.03942301,0.02926878,9.49000000,0.47000000,0.02000000
161,0,-0.00800000,0.16200000,0.98900000,0.07000000,-0.36000000,0.16000000,-0.12886344,0.03904008,0.02943897,9.49000000,0.47000000,0.02000000
162,0,-0.00700000,0.15800000,0.98700000,0.20000000,-0.07000000,-0.02000000,-0.11778182,0.03516151,0.02833081,9.49000000,0.47000000,0.02000000
163,0,-0.00900000,0.16300000,0.98900000,0.23000000,0.19000000,0.01000000,-0.11753942,0.03536175,0.02834135,9.48000000,0.47000000,0.02000000
164,0,-0.00100000,0.16100000,0.99000000,0.13000000,-0.07000000,0.05000000,-0.11740904,0.03529155,0.02839149,9.48000000,0.47000000,0.02000000
165,0,-0.00700000,0.16300000,0.98900000,-0.22000000,-0.05000000,0.08000000,-0.11762963,0.03524142,0.02847170,9.48000000,0.47000000,0.02000000
166,0,-0.01200000,0.16400000,0.98700000,0.05000000,0.09000000,0.24000000,-0.11757903,0.03533249,0.02871457,9.48000000,0.47000000,0.03000000
167,0,-0.00500000,0.16000000,0.99100000,-0.01000000,-0.11000000,-0.07000000,-0.11758911,0.03522163,0.02864402,9.48000000,0.47000000,0.02000000
168,0,-0.00500000,0.16200000,0.99100000,0.27000000,0.14000000,-0.16000000,-0.10254743,0.04302102,0.01973043,9.48000000,0.47000000,0.02000000
169,0,-0.00700000,0.16300000,0.98700000,0.19000000,0.16000000,-0.27000000,-0.10233667,0.04319849,0.01943094,9.48000000,0.47000000,0.02000000
170,0,-0.01100000,0.16100000,0.98600000,0.23000000,-0.06000000,-0.08000000,-0.10210118,0.04313706,0.01934903,9.48000000,0.47000000,0.02000000
171,0,-0.00800000,0.16400000,0.98800000,-0.07000000,0.11000000,0.05000000,-0.10217175,0.04324796,0.01939943,9.48000000,0.47000000,0.02000000
172,0,-0.01100000,0.15800000,0.98500000,0.12000000,0.15000000,-0.12000000,-0.10204960,0.04340064,0.01927728,9.48000000,0.47000000,0.02000000
173,0,-0.00700000,0.15900000,0.98500000,0.03000000,0.13000000,0.02000000,-0.10201881,0.04353406,0.01929781,9.48000000,0.47000000,0.02000000
174,0,-0.00800000,0.16000000,0.99100000,0.10000000,-0.12000000,-0.20000000,-0.09640471,0.03679714,0.00806961,9.47000000,0.47000000,0.02000000
175,0,-0.00700000,0.16000000,0.98800000,-0.24000000,0.03000000,0.01000000,-0.09665800,0.03682880,0.00808016,9.47000000,0.47000000,0.03000000
176,0,-0.01000000,0.15700000,0.99000000,-0.11000000,0.24000000,0.13000000,-0.09676829,0.03706943,0.00821051,9.47000000,0.47000000,0.03000000
177,0,-0.00600000,0.16300000,0.98800000,0.11000000,0.12000000,-0.13000000,-0.09665705,0.03719078,0.00807905,9.47000000,0.47000000,0.03000000
178,0,-0.01000000,0.16100000,0.98700000,-0.33000000,0.00000000,0.12000000,-0.09698848,0.03719078,0.00819957,9.46000000,0.47000000,0.03000000
179,0,-0.00400000,0.15800000,0.98400000,0.08000000,0.46000000,0.03000000,-0.09690832,0.03765167,0.00822962,9.46000000,0.47000000,0.02000000
180,0,-0.00700000,0.15900000,0.98500000,-0.04000000,-0.02000000,0.32000000,-0.09912791,0.03654188,0.02598631,9.46000000,0.47000000,0.03000000
181,0,-0.00700000,0.16200000,0.98900000,0.07000000,-0.25000000,0.07000000,-0.09905422,0.03627870,0.02606000,9.46000000,0.47000000,0.03000000
182,0,-0.00400000,0.16500000,0.99100000,-0.26000000,0.24000000,-0.03000000,-0.09931516,0.03651957,0.02602989,9.46000000,0.47000000,0.03000000
183,0,-0.00400000,0.16500000,0.99300000,0.08000000,0.09000000,-0.03000000,-0.09923451,0.03661030,0.02599965,9.45000000,0.47000000,0.03000000
184,0,-0.00200000,0.16300000,0.98400000,-0.02000000,0.36000000,0.27000000,-0.09925449,0.03696997,0.02626940,9.45000000,0.47000000,0.02000000
185,0,-0.00400000,0.16000000,0.98600000,-0.04000000,-0.00000000,0.11000000,-0.09929453,0.03696997,0.02637951,9.45000000,0.46000000,0.02000000
186,0,-0.00200000,0.16300000,0.99100000,-0.01000000,0.08000000,-0.14000000,-0.09984987,0.04141268,0.01860475,9.45000000,0.46000000,0.02000000
187,0,-0.00500000,0.16300000,0.99100000,0.07000000,-0.12000000,-0.17000000,-0.09977549,0.04128518,0.01842412,9.45000000,0.46000000,0.03000000
188,0,-0.01000000,0.16500000,0.99100000,-0.15000000,-0.24000000,-0.02000000,-0.09992711,0.04104260,0.01840391,9.45000000,0.46000000,0.02000000
189,0,-0.00000000,0.15900000,0.98700000,0.02000000,0.19000000,0.22000000,-0.09990690,0.04123456,0.01862617,9.45000000,0.47000000,0.03000000
190,0,-0.00900000,0.15700000,0.99100000,0.26000000,-0.24000000,-0.02000000,-0.09964615,0.04099386,0.01860611,9.44000000,0.46000000,0.03000000
191,0,-0.00400000,0.16100000,0.98600000,0.15000000,-0.03000000,0.16000000,-0.09949546,0.04096373,0.01876684,9.44000000,0.46000000,0.03000000
192,0,-0.00700000,0.16200000,0.98800000,0.29000000,0.34000000,0.17000000,-0.08310326,0.06018218,0.02837607,9.44000000,0.46000000,0.03000000
193,0,-0.00700000,0.15800000,0.98800000,0.19000000,0.08000000,0.22000000,-0.08290174,0.06026702,0.02860940,9.44000000,0.46000000,0.03000000
194,0,-0.00600000,0.16200000,0.98800000,0.17000000,0.13000000,0.08000000,-0.08272894,0.06039917,0.02869072,9.44000000,0.46000000,0.03000000
195,0,-0.00700000,0.15800000,0.99200000,0.03000000,-0.09000000,-0.03000000,-0.08269893,0.06030914,0.02866071,9.44000000,0.46000000,0.03000000
196,0,-0.00500000,0.15600000,0.98800000,0.28000000,0.13000000,-0.22000000,-0.08241886,0.06043918,0.02844065,9.44000000,0.46000000,0.03000000
197,0,-0.00200000,0.16000000,0.98900000,0.07000000,-0.16000000,0.12000000,-0.08234872,0.06027887,0.02856088,9.44000000,0.46000000,0.03000000
198,0,-0.00900000,0.15900000,0.98800000,-0.16000000,0.29000000,0.14000000,-0.09120742,0.07633526,0.03631224,9.43000000,0.46000000,0.03000000
199,0,-0.00700000,0.16000000,0.99000000,0.03000000,0.23000000,0.00000000,-0.09117589,0.07657700,0.03631224,9.43000000,0.46000000,0.03000000
200,0,-0.00600000,0.15600000,0.98700000,0.10000000,0.07000000,0.24000000,-0.09107422,0.07664817,0.03655625,9.43000000,0.46000000,0.03000000
201,0,-0.00700000,0.16000000,0.99100000,0.20000000,0.09000000,-0.22000000,-0.09087288,0.07673877,0.03633478,9.43000000,0.46000000,0.03000000
202,0,-0.00500000,0.15500000,0.99000000,0.03000000,0.13000000,0.11000000,-0.09084292,0.07686856,0.03644460,9.43000000,0.46000000,0.03000000
203,0,-0.00900000,0.15900000,0.98800000,0.01000000,0.10000000,0.27000000,-0.09083287,0.07696909,0.03671602,9.43000000,0.46000000,0.04000000
204,0,-0.00300000,0.15900000,0.99000000,-0.00000000,-0.00000000,0.19000000,-0.09083287,0.07696909,0.04729964,9.43000000,0.46000000,0.04000000
205,0,-0.01000000,0.16100000,0.98900000,0.23000000,0.20000000,-0.01000000,-0.09059036,0.07717996,0.04728910,9.43000000,0.47000000,0.03000000
206,0,-0.00700000,0.16100000,0.98600000,0.16000000,0.17000000,-0.26000000,-0.09042795,0.07735252,0.04702519,9.43000000,0.47000000,0.03000000
207,0,-0.00700000,0.15700000,0.99100000,-0.17000000,-0.04000000,0.05000000,-0.09059772,0.07731258,0.04707512,9.43000000,0.47000000,0.03000000
208,0,-0.00700000,0.15500000,0.99400000,0.02000000,0.19000000,0.12000000,-0.09057782,0.07750159,0.04719449,9.43000000,0.47000000,0.03000000
209,0,-0.00900000,0.16400000,0.99000000,0.18000000,-0.21000000,0.12000000,-0.09039794,0.07729173,0.04731441,9.43000000,0.47000000,0.03000000
210,0,-0.00700000,0.15700000,0.99100000,-0.05000000,0.19000000,-0.08000000,-0.09321284,0.08798833,0.04281058,9.42000000,0.46000000,0.04000000
211,0,-0.00500000,0.16000000,0.98300000,0.22000000,-0.05000000,0.00000000,-0.09297993,0.08793539,0.04281058,9.42000000,0.46000000,0.04000000
212,0,-0.00100000,0.16300000,0.98700000,0.05000000,0.13000000,0.02000000,-0.09292981,0.08806571,0.04283063,9.42000000,0.46000000,0.04000000
213,0,-0.00100000,0.15600000,0.98500000,0.12000000,0.29000000,0.10000000,-0.09280986,0.08835558,0.04293058,9.42000000,0.46000000,0.04000000
214,0,-0.00000000,0.16100000,0.99000000,0.07000000,0.05000000,-0.19000000,-0.09274023,0.08840532,0.04274157,9.42000000,0.46000000,0.04000000
215,0,-0.00700000,0.16400000,0.98500000,0.11000000,0.06000000,-0.21000000,-0.09263062,0.08846511,0.04253232,9.42000000,0.46000000,0.04000000
216,0,-0.00100000,0.16100000,0.99100000,-0.11000000,-0.01000000,-0.15000000,-0.09873508,0.08791015,0.03420805,9.42000000,0.46000000,0.04000000
217,0,-0.00800000,0.15600000,0.98400000,0.21000000,-0.03000000,-0.16000000,-0.09851110,0.08787816,0.03403740,9.41000000,0.46000000,0.04000000
218,0,-0.01100000,0.15800000,0.98800000,0.09000000,-0.11000000,0.03000000,-0.09841462,0.08776023,0.03406956,9.41000000,0.46000000,0.04000000
219,0,-0.00700000,0.16000000,0.99200000,-0.10000000,0.02000000,0.06000000,-0.09852113,0.08778154,0.03413347,9.41000000,0.46000000,0.04000000
220,0,-0.00800000,0.15800000,0.98700000,-0.24000000,0.11000000,-0.21000000,-0.09876091,0.08789144,0.03392366,9.40000000,0.46000000,0.04000000
221,0,0.00000000,0.15800000,0.99100000,0.20000000,-0.02000000,-0.16000000,-0.09855709,0.08787105,0.03376061,9.40000000,0.46000000,0.04000000
222,0,-0.01200000,0.16000000,0.99100000,0.02000000,0.07000000,0.01000000,-0.09744492,0.09176364,0.03431669,9.40000000,0.46000000,0.04000000
223,0,-0.01000000,0.15800000,0.99300000,-0.16000000,0.37000000,-0.13000000,-0.09761832,0.09216461,0.03417581,9.40000000,0.46000000,0.04000000
224,0,-0.00500000,0.15500000,0.98600000,-0.27000000,-0.10000000,0.15000000,-0.09788891,0.09206440,0.03432613,9.40000000,0.46000000,0.04000000
225,0,-0.00200000,0.16400000,0.98900000,-0.09000000,-0.20000000,-0.28000000,-0.09797889,0.09186444,0.03404619,9.39000000,0.46000000,0.04000000
226,0,-0.00200000,0.15700000,0.98600000,-0.03000000,-0.12000000,-0.07000000,-0.09800887,0.09174452,0.03397624,9.39000000,0.46000000,0.03000000
227,0,0.00500000,0.16200000,0.99100000,0.12000000,-0.17000000,0.09000000,-0.09788162,0.09156426,0.03407167,9.39000000,0.46000000,0.03000000
228,0,-0.00500000,0.16100000,0.98600000,-0.05000000,-0.00000000,0.34000000,-0.10068987,0.09156426,0.05316772,9.39000000,0.46000000,0.04000000
229,0,-0.00600000,0.15700000,0.98700000,-0.09000000,-0.16000000,0.15000000,-0.10078489,0.09139533,0.05332609,9.39000000,0.45000000,0.04000000
230,0,-0.00600000,0.15800000,0.98600000,-0.05000000,-0.11000000,0.01000000,-0.10083502,0.09128504,0.05333612,9.39000000,0.46000000,0.04000000
231,0,-0.01000000,0.15900000,0.98500000,0.03000000,0.04000000,-0.06000000,-0.10080516,0.09132486,0.05327639,9.38000000,0.46000000,0.04000000
232,0,-0.00300000,0.15900000,0.98700000,-0.08000000,-0.00000000,-0.34000000,-0.10088476,0.09132486,0.05293808,9.38000000,0.45000000,0.04000000
233,0,-0.00600000,0.16200000,0.98600000,-0.20000000,-0.05000000,-0.10000000,-0.10108739,0.09127420,0.05283676,9.38000000,0.45000000,0.04000000
234,0,-0.00200000,0.15500000,0.98700000,-0.22000000,-0.30000000,-0.03000000,-0.11329626,0.07462573,0.05117192,9.37000000,0.45000000,0.03000000
235,0,-0.00300000,0.15800000,0.98700000,0.16000000,0.01000000,0.19000000,-0.11312855,0.07463622,0.05137107,9.37000000,0.45000000,0.03000000
236,0,-0.00300000,0.15500000,0.98900000,0.23000000,0.07000000,-0.04000000,-0.11289789,0.07470642,0.05133096,9.37000000,0.45000000,0.04000000
237,0,-0.00500000,0.16100000,0.98700000,0.11000000,-0.24000000,0.10000000,-0.11278807,0.07446681,0.05143079,9.37000000,0.45000000,0.04000000
238,0,-0.00500000,0.15900000,0.98700000,-0.05000000,-0.09000000,0.01000000,-0.11283790,0.07437711,0.05144076,9.37000000,0.45000000,0.04000000
239,0,-0.00400000,0.16000000,0.98600000,0.11000000,0.08000000,0.07000000,-0.11272785,0.07445715,0.05151080,9.36000000,0.44000000,0.04000000
240,0,-0.00200000,0.16000000,0.98700000,0.24000000,-0.12000000,-0.20000000,-0.09936559,0.06777602,0.04037558,9.36000000,0.44000000,0.04000000
241,0,-0.00400000,0.15800000,0.98900000,0.05000000,-0.00000000,0.06000000,-0.09931293,0.06777602,0.04043877,9.36000000,0.44000000,0.04000000
242,0,-0.00600000,0.15700000,0.98400000,-0.19000000,-0.10000000,0.05000000,-0.09950266,0.06767616,0.04048870,9.36000000,0.44000000,0.04000000
243,0,-0.00400000,0.15900000,0.98900000,-0.00000000,0.33000000,-0.04000000,-0.09950266,0.06800766,0.04044852,9.36000000,0.44000000,0.04000000
244,0,-0.00400000,0.15600000,0.99100000,-0.06000000,0.06000000,0.00000000,-0.09956232,0.06806732,0.04044852,9.36000000,0.44000000,0.04000000
245,0,-0.00400000,0.15900000,0.98500000,0.13000000,0.18000000,-0.12000000,-0.09943126,0.06824879,0.04032754,9.36000000,0.44000000,0.04000000
246,0,-0.00700000,0.15300000,0.99000000,0.14000000,0.29000000,0.17000000,-0.09154565,0.08458326,0.04990292,9.35000000,0.44000000,0.04000000
247,0,-0.00300000,0.15800000,0.98600000,0.04000000,0.16000000,-0.16000000,-0.09150373,0.08475094,0.04973525,9.35000000,0.44000000,0.04000000
248,0,-0.00600000,0.15700000,0.98700000,-0.03000000,-0.01000000,0.06000000,-0.09153389,0.08474088,0.04979555,9.35000000,0.44000000,0.04000000
249,0,-0.00300000,0.15700000,0.98900000,0.03000000,-0.35000000,-0.06000000,-0.09150271,0.08437719,0.04973321,9.35000000,0.44000000,0.04000000
250,0,-0.00400000,0.16200000,0.98800000,0.04000000,-0.10000000,0.13000000,-0.09146221,0.08427592,0.04986485,9.35000000,0.44000000,0.04000000
251,0,-0.00000000,0.15700000,0.98900000,0.09000000,0.07000000,0.01000000,-0.09137231,0.08434584,0.04987484,9.35000000,0.44000000,0.04000000
252,0,-0.00600000,0.15500000,0.98500000,0.21000000,0.17000000,0.04000000,-0.07965159,0.09383404,0.05210736,9.35000000,0.44000000,0.04000000
253,0,-0.00600000,0.16400000,0.98600000,0.13000000,-0.04000000,0.29000000,-0.07913878,0.09367625,0.05325133,9.35000000,0.44000000,0.04000000
254,0,-0.00500000,0.15600000,0.98900000,-0.06000000,0.10000000,-0.16000000,-0.07922082,0.09381299,0.05303254,9.35000000,0.44000000,0.04000000
255,0,-0.00400000,0.15900000,0.98900000,0.31000000,-0.05000000,-0.16000000,-0.07814548,0.09363955,0.05247753,9.34000000,0.43000000,0.04000000
256,0,-0.00800000,0.16000000,0.99100000,-0.17000000,0.07000000,0.01000000,-0.07838929,0.09373995,0.05249187,9.34000000,0.43000000,0.04000000
257,0,-0.00100000,0.15300000,0.98100000,-0.06000000,0.07000000,0.08000000,-0.07847172,0.09383612,0.05260178,9.34000000,0.43000000,0.04000000
258,0,-0.00400000,0.15900000,0.98400000,-0.20000000,-0.03000000,0.17000000,-0.08843678,0.09234136,0.06107208,9.34000000,0.43000000,0.04000000
259,0,-0.00500000,0.15900000,0.98900000,0.03000000,-0.15000000,0.07000000,-0.08839182,0.09211657,0.06117698,9.34000000,0.43000000,0.04000000
260,0,-0.00500000,0.15500000,0.98800000,0.11000000,-0.24000000,-0.12000000,-0.08791536,0.09107702,0.06065720,9.33000000,0.43000000,0.04000000
261,0,-0.00800000,0.15900000,0.99000000,0.13000000,0.01000000,0.02000000,-0.08719535,0.09113241,0.06076798,9.33000000,0.43000000,0.04000000
262,0,-0.00200000,0.15600000,0.99000000,-0.02000000,-0.04000000,-0.12000000,-0.08735040,0.09082231,0.05983767,9.33000000,0.42000000,0.04000000
263,0,-0.00300000,0.15900000,0.98400000,-0.10000000,0.09000000,0.31000000,-0.08752806,0.09098220,0.06038841,9.33000000,0.42000000,0.04000000
264,0,-0.00600000,0.15600000,0.98900000,0.36000000,0.13000000,-0.15000000,-0.07327987,0.09612738,0.05445166,9.33000000,0.42000000,0.04000000
265,0,-0.00800000,0.16200000,0.98900000,0.07000000,-0.06000000,0.14000000,-0.07313116,0.09599991,0.05474908,9.33000000,0.42000000,0.04000000
266,0,-0.00300000,0.15500000,0.99400000,-0.06000000,-0.18000000,0.18000000,-0.07320083,0.09579090,0.05495809,9.32000000,0.42000000,0.04000000
267,0,-0.00500000,0.15400000,0.98900000,0.17000000,-0.24000000,-0.20000000,-0.07302317,0.09554008,0.05474908,9.32000000,0.42000000,0.04000000
268,0,-0.01000000,0.15600000,0.99000000,0.09000000,-0.02000000,-0.12000000,-0.07293308,0.09552006,0.05462896,9.32000000,0.42000000,0.04000000
269,0,-0.00200000,0.15400000,0.98800000,-0.01000000,-0.04000000,-0.10000000,-0.07294306,0.09548012,0.05452912,9.31000000,0.42000000,0.04000000
270,0,-0.00600000,0.15300000,0.98800000,-0.08000000,-0.10000000,-0.03000000,-0.07727527,0.09006486,0.05290454,9.31000000,0.41000000,0.04000000
271,0,-0.00400000,0.15800000,0.99400000,0.30000000,0.06000000,0.20000000,-0.07694350,0.09013122,0.05312572,9.31000000,0.42000000,0.04000000
272,0,-0.00300000,0.15600000,0.98800000,-0.34000000,0.10000000,-0.12000000,-0.07736920,0.09025642,0.05297548,9.31000000,0.41000000,0.04000000
273,0,-0.00800000,0.15800000,0.98600000,0.13000000,-0.16000000,-0.00000000,-0.07722992,0.09008501,0.05297548,9.31000000,0.41000000,0.04000000
274,0,-0.00200000,0.15100000,0.99000000,-0.06000000,0.04000000,0.05000000,-0.07729190,0.09012633,0.05302712,9.30000000,0.41000000,0.04000000
275,0,-0.00300000,0.15500000,0.98700000,0.43000000,0.10000000,0.11000000,-0.07685061,0.09022895,0.05314001,9.30000000,0.41000000,0.04000000
276,0,-0.00400000,0.15600000,0.99100000,-0.08000000,0.16000000,-0.27000000,-0.08149915,0.09952603,0.03745119,9.30000000,0.41000000,0.04000000
277,0,-0.00500000,0.15700000,0.98700000,-0.11000000,0.12000000,0.01000000,-0.08161563,0.09965310,0.03746178,9.30000000,0.41000000,0.04000000
278,0,-0.01100000,0.15600000,0.98700000,-0.14000000,0.39000000,0.12000000,-0.08175697,0.10004684,0.03758292,9.29000000,0.41000000,0.04000000
279,0,-0.00300000,0.15500000,0.99100000,-0.13000000,-0.24000000,0.13000000,-0.08188698,0.09980683,0.03771293,9.29000000,0.41000000,0.04000000
280,0,-0.00500000,0.15600000,0.98600000,0.21000000,-0.02000000,0.19000000,-0.08167407,0.09978655,0.03790556,9.29000000,0.41000000,0.04000000
281,0,-0.00400000,0.15500000,0.98700000,0.00000000,-0.03000000,0.11000000,-0.08167407,0.09975583,0.03801821,9.29000000,0.41000000,0.04000000
282,0,-0.00300000,0.16000000,0.99000000,-0.05000000,-0.08000000,0.00000000,-0.08172466,0.09967487,0.03801821,9.29000000,0.41000000,0.04000000
283,0,-0.00700000,0.15400000,0.98500000,-0.10000000,-0.03000000,-0.08000000,-0.08738189,0.09797770,0.03349243,9.28000000,0.41000000,0.04000000
284,0,-0.00600000,0.15900000,0.98900000,-0.18000000,0.04000000,0.02000000,-0.08761413,0.09802931,0.03351823,9.28000000,0.41000000,0.04000000
285,0,-0.00700000,0.15800000,0.98900000,-0.09000000,-0.11000000,0.13000000,-0.08772526,0.09789347,0.03367877,9.28000000,0.41000000,0.04000000
286,0,-0.00500000,0.15800000,0.99400000,0.00000000,0.09000000,0.11000000,-0.08772526,0.09800290,0.03381250,9.28000000,0.41000000,0.04000000
287,0,-0.01000000,0.15700000,0.99100000,-0.00000000,0.10000000,0.07000000,-0.08772526,0.09812512,0.03389806,9.27000000,0.41000000,0.04000000
288,0,-0.00100000,0.15800000,0.98800000,-0.30000000,-0.05000000,-0.24000000,-0.08809787,0.09806302,0.03359997,9.27000000,0.41000000,0.04000000
289,0,-0.00700000,0.15500000,0.98800000,0.04000000,-0.12000000,-0.11000000,-0.08592201,0.09153544,0.02761636,9.27000000,0.41000000,0.04000000
290,0,-0.00700000,0.15700000,0.99100000,-0.06000000,0.10000000,0.08000000,-0.08599955,0.09166467,0.02771975,9.26000000,0.41000000,0.04000000
291,0,-0.00900000,0.15300000,0.98800000,0.19000000,-0.04000000,0.00000000,-0.08576225,0.09161471,0.02771975,9.26000000,0.41000000,0.04000000
292,0,-0.00500000,0.15600000,0.99100000,0.00000000,-0.01000000,0.12000000,-0.08576225,0.09160250,0.02786630,9.26000000,0.41000000,0.04000000
293,0,-0.00300000,0.15100000,0.99100000,0.02000000,-0.02000000,0.12000000,-0.08573757,0.09157781,0.02801443,9.26000000,0.41000000,0.04000000
294,0,-0.00500000,0.15500000,0.98500000,0.09000000,-0.01000000,0.20000000,-0.08562623,0.09156544,0.02826183,9.26000000,0.41000000,0.04000000
295,0,0.00100000,0.15700000,0.98500000,0.11000000,0.03000000,-0.08000000,-0.07962028,0.09320343,0.02389386,9.26000000,0.41000000,0.04000000
296,0,-0.00200000,0.15300000,0.98600000,0.25000000,0.10000000,0.02000000,-0.07926054,0.09334733,0.02392264,9.26000000,0.41000000,0.04000000
297,0,-0.00400000,0.15500000,0.99100000,0.00000000,-0.05000000,0.08000000,-0.07926054,0.09327847,0.02403282,9.26000000,0.41000000,0.04000000
298,0,-0.00800000,0.15600000,0.99000000,-0.11000000,0.16000000,0.34000000,-0.07940904,0.09349447,0.02449183,9.26000000,0.41000000,0.05000000
299,0,-0.00700000,0.15100000,0.99100000,0.07000000,0.19000000,0.24000000,-0.07931377,0.09375306,0.02481847,9.26000000,0.41000000,0.05000000
300,0,-0.00400000,0.15800000,0.98900000,-0.06000000,-0.03000000,-0.08000000,-0.07940210,0.09370890,0.02470070,9.25000000,0.41000000,0.05000000
301,0,0.00100000,0.15200000,0.98800000,0.05000000,-0.18000000,0.02000000,-0.07668653,0.08393285,0.02578693,9.25000000,0.41000000,0.05000000
302,0,-0.00900000,0.15400000,0.98700000,0.18000000,0.08000000,0.03000000,-0.07642884,0.08404738,0.02582987,9.25000000,0.41000000,0.05000000
303,0,-0.00200000,0.15200000,0.99000000,-0.23000000,0.10000000,-0.07000000,-0.07674396,0.08418438,0.02573397,9.25000000,0.41000000,0.05000000
304,0,-0.00200000,0.15400000,0.99000000,-0.06000000,0.17000000,-0.30000000,-0.07682527,0.08441478,0.02532739,9.25000000,0.41000000,0.05000000
305,0,-0.00200000,0.15400000,0.98700000,0.11000000,0.13000000,-0.27000000,-0.07667113,0.08459695,0.02494904,9.25000000,0.41000000,0.05000000
306,0,-0.00400000,0.15600000,0.98800000,-0.23000000,-0.05000000,0.06000000,-0.07699348,0.08452687,0.02503313,9.25000000,0.41000000,0.05000000
307,0,-0.00600000,0.15500000,0.99300000,-0.01000000,0.14000000,-0.27000000,-0.07753046,0.09204461,0.01053463,9.24000000,0.41000000,0.04000000
308,0,-0.00200000,0.15700000,0.99000000,0.00000000,0.07000000,0.08000000,-0.07753046,0.09214939,0.01065438,9.24000000,0.41000000,0.04000000
309,0,-0.00200000,0.15200000,0.99000000,0.37000000,0.18000000,0.03000000,-0.07699602,0.09240939,0.01069771,9.24000000,0.41000000,0.04000000
310,0,-0.00300000,0.15600000,0.99100000,0.18000000,0.09000000,-0.16000000,-0.07673834,0.09253824,0.01046866,9.24000000,0.40000000,0.04000000
311,0,-0.00300000,0.15300000,0.99000000,0.01000000,-0.04000000,0.02000000,-0.07672450,0.09248286,0.01049635,9.24000000,0.40000000,0.04000000
312,0,-0.00500000,0.15400000,0.99000000,-0.08000000,0.09000000,0.10000000,-0.07683616,0.09260848,0.01063593,9.23000000,0.40000000,0.04000000
313,0,-0.00400000,0.15500000,0.98900000,0.17000000,-0.18000000,0.19000000,-0.06776612,0.08300491,0.02077303,9.23000000,0.40000000,0.04000000
314,0,-0.00100000,0.16100000,0.98700000,0.03000000,0.06000000,0.05000000,-0.06773252,0.08307211,0.02082903,9.23000000,0.40000000,0.04000000
315,0,-0.00300000,0.15400000,0.99400000,0.00000000,-0.12000000,-0.10000000,-0.06773252,0.08295153,0.02072855,9.23000000,0.40000000,0.04000000
316,0,-0.00800000,0.15500000,0.98400000,0.11000000,-0.07000000,0.09000000,-0.06762317,0.08288195,0.02081801,9.23000000,0.40000000,0.04000000
317,0,-0.00100000,0.15300000,0.98800000,0.04000000,-0.07000000,0.11000000,-0.06758332,0.08281220,0.02092762,9.23000000,0.40000000,0.04000000
318,0,-0.00700000,0.15700000,0.98700000,0.25000000,-0.16000000,0.18000000,-0.06733069,0.08265051,0.02110952,9.23000000,0.40000000,0.05000000
319,0,-0.00900000,0.15200000,0.98700000,0.06000000,-0.03000000,0.26000000,-0.06395949,0.08096492,0.03571802,9.23000000,0.40000000,0.05000000
320,0,-0.00200000,0.15600000,0.99100000,0.16000000,0.01000000,-0.14000000,-0.06379289,0.08097533,0.03557224,9.23000000,0.40000000,0.05000000
321,0,-0.00400000,0.15600000,0.98700000,0.12000000,-0.08000000,-0.08000000,-0.06367437,0.08089632,0.03549323,9.23000000,0.40000000,0.05000000
322,0,0.00000000,0.15700000,0.98600000,0.05000000,-0.01000000,0.00000000,-0.06362506,0.08088646,0.03549323,9.22000000,0.40000000,0.05000000
323,0,0.00100000,0.16100000,0.99000000,-0.23000000,0.19000000,0.01000000,-0.06385830,0.08107914,0.03550337,9.22000000,0.40000000,0.05000000
324,0,0.00000000,0.15700000,0.99000000,-0.21000000,0.04000000,-0.19000000,-0.06406986,0.08111943,0.03531196,9.22000000,0.40000000,0.05000000
325,0,-0.00500000,0.15600000,0.99400000,0.30000000,-0.16000000,-0.19000000,-0.04742984,0.07224475,0.02477328,9.22000000,0.40000000,0.05000000
326,0,-0.00300000,0.15400000,0.99100000,0.07000000,-0.09000000,-0.18000000,-0.04735611,0.07214996,0.02458370,9.22000000,0.40000000,0.05000000
327,0,-0.00300000,0.15500000,0.98400000,-0.03000000,0.21000000,0.11000000,-0.04738620,0.07236057,0.02469402,9.22000000,0.40000000,0.05000000
328,0,-0.00600000,0.15600000,0.98900000,-0.18000000,0.10000000,0.12000000,-0.04756470,0.07245974,0.02481302,9.22000000,0.40000000,0.05000000
329,0,-0.00300000,0.15400000,0.98600000,-0.05000000,0.32000000,0.18000000,-0.04761510,0.07278227,0.02499444,9.22000000,0.40000000,0.05000000
330,0,-0.00200000,0.15400000,0.98800000,0.04000000,0.26000000,-0.12000000,-0.04757361,0.07305195,0.02486998,9.22000000,0.40000000,0.05000000
331,0,-0.00400000,0.16000000,0.99200000,0.01000000,-0.04000000,-0.15000000,-0.04700929,0.07079466,0.01640516,9.21000000,0.40000000,0.05000000
332,0,0.00100000,0.15700000,0.98900000,-0.14000000,-0.05000000,0.29000000,-0.04715487,0.07074267,0.01670671,9.21000000,0.40000000,0.05000000
333,0,-0.00700000,0.16100000,0.98500000,-0.04000000,0.12000000,0.20000000,-0.04719522,0.07086373,0.01690848,9.21000000,0.39000000,0.05000000
334,0,-0.01000000,0.15300000,0.98700000,-0.06000000,0.02000000,-0.20000000,-0.04725727,0.07088441,0.01670166,9.21000000,0.39000000,0.05000000
335,0,-0.00200000,0.15700000,0.98700000,0.02000000,0.12000000,-0.00000000,-0.04723725,0.07100450,0.01670166,9.20000000,0.39000000,0.05000000
336,0,-0.00500000,0.15700000,0.98900000,-0.07000000,0.02000000,-0.13000000,-0.04730736,0.07102453,0.01657147,9.20000000,0.39000000,0.05000000
337,0,-0.00300000,0.15400000,0.98800000,0.21000000,0.02000000,-0.16000000,-0.03565668,0.07213412,0.00769477,9.20000000,0.39000000,0.05000000
338,0,-0.00000000,0.15800000,0.98900000,-0.12000000,0.09000000,-0.10000000,-0.03578009,0.07222668,0.00759193,9.20000000,0.39000000,0.05000000
339,0,-0.00700000,0.15400000,0.98700000,-0.07000000,0.11000000,0.44000000,-0.03584929,0.07233542,0.00802691,9.20000000,0.39000000,0.05000000
340,0,-0.00600000,0.15400000,0.99300000,0.19000000,0.06000000,0.05000000,-0.03565467,0.07239688,0.00807812,9.20000000,0.39000000,0.05000000
341,0,-0.00900000,0.15500000,0.98600000,0.16000000,0.13000000,0.17000000,-0.03549451,0.07252701,0.00824829,9.20000000,0.39000000,0.05000000
342,0,-0.00200000,0.15200000,0.99000000,0.13000000,-0.03000000,0.09000000,-0.03536531,0.07249719,0.00833773,9.19000000,0.39000000,0.05000000
343,0,-0.00400000,0.15500000,0.99000000,0.23000000,-0.07000000,0.13000000,-0.02259672,0.06861110,0.01555477,9.19000000,0.39000000,0.05000000
344,0,-0.00000000,0.15500000,0.98500000,-0.03000000,-0.10000000,0.19000000,-0.02262774,0.06850769,0.01575125,9.19000000,0.39000000,0.05000000
345,0,-0.00500000,0.15400000,0.99000000,0.09000000,-0.07000000,0.12000000,-0.02253877,0.06843849,0.01586988,9.19000000,0.39000000,0.05000000
346,0,-0.00600000,0.15400000,0.98800000,0.01000000,0.02000000,0.02000000,-0.02252877,0.06845848,0.01588988,9.19000000,0.39000000,0.05000000
347,0,-0.00600000,0.15600000,0.98600000,0.08000000,0.24000000,0.02000000,-0.02244886,0.06869820,0.01590985,9.19000000,0.39000000,0.05000000
348,0,-0.00500000,0.15600000,0.99200000,0.16000000,0.13000000,-0.09000000,-0.02229054,0.06882684,0.01582079,9.18000000,0.39000000,0.05000000
349,0,-0.00200000,0.15400000,0.98900000,0.11000000,-0.16000000,-0.21000000,-0.01607031,0.05977924,0.00394582,9.18000000,0.39000000,0.05000000
350,0,0.00100000,0.15600000,0.98900000,0.19000000,-0.07000000,0.14000000,-0.01587333,0.05970667,0.00409096,9.18000000,0.38000000,0.05000000
351,0,-0.00300000,0.15400000,0.98800000,0.12000000,0.08000000,-0.04000000,-0.01575229,0.05978736,0.00405062,9.18000000,0.38000000,0.05000000
352,0,0.00200000,0.15000000,0.99300000,0.09000000,0.03000000,-0.09000000,-0.01566240,0.05981733,0.00396072,9.18000000,0.38000000,0.05000000
353,0,-0.00500000,0.15600000,0.99300000,0.17000000,-0.00000000,0.02000000,-0.01549576,0.05981733,0.00398033,9.18000000,0.38000000,0.05000000
354,0,0.00300000,0.15500000,0.98600000,0.23000000,-0.00000000,0.07000000,-0.01526871,0.05981733,0.00404943,9.18000000,0.38000000,0.05000000
355,0,-0.00500000,0.15300000,0.98900000,0.11000000,-0.00000000,-0.12000000,-0.00915302,0.05981733,-0.00262223,9.17000000,0.38000000,0.05000000
356,0,-0.00500000,0.15000000,0.98600000,0.06000000,0.34000000,0.08000000,-0.00909093,0.06016917,-0.00253944,9.17000000,0.38000000,0.05000000
357,0,-0.00100000,0.15400000,0.99400000,0.24000000,0.02000000,0.04000000,-0.00885047,0.06018921,-0.00249937,9.17000000,0.38000000,0.05000000
358,0,-0.00500000,0.15500000,0.99000000,0.13000000,-0.00000000,0.15000000,-0.00871870,0.06018921,-0.00234732,9.17000000,0.38000000,0.05000000
359,0,-0.00300000,0.15400000,0.99000000,0.09000000,-0.06000000,-0.04000000,-0.00862964,0.06012984,-0.00238691,9.17000000,0.38000000,0.05000000
360,0,-0.00400000,0.15300000,0.99100000,0.11000000,0.09000000,-0.19000000,-0.00850348,0.06023306,-0.00260482,9.17000000,0.38000000,0.05000000
361,0,-0.00500000,0.14900000,0.99000000,0.14000000,-0.13000000,-0.25000000,-0.00074828,0.05303180,-0.01645338,9.17000000,0.37000000,0.05000000
362,0,-0.00500000,0.15300000,0.99000000,0.11000000,0.06000000,-0.04000000,-0.00063374,0.05309428,-0.01649504,9.16000000,0.37000000,0.05000000
363,0,-0.00100000,0.15800000,0.99000000,-0.04000000,0.01000000,-0.15000000,-0.00067400,0.05310434,-0.01664601,9.16000000,0.37000000,0.05000000
364,0,-0.00200000,0.15600000,0.99400000,0.17000000,0.06000000,-0.14000000,-0.00050318,0.05316463,-0.01678668,9.16000000,0.38000000,0.05000000
365,0,-0.00300000,0.15000000,0.99000000,-0.05000000,0.27000000,-0.05000000,-0.00055286,0.05343290,-0.01683636,9.16000000,0.37000000,0.05000000
366,0,-0.00600000,0.15600000,0.98900000,-0.13000000,-0.09000000,0.02000000,-0.00068150,0.05334384,-0.01681657,9.16000000,0.37000000,0.05000000
367,0,-0.00500000,0.15200000,0.99000000,-0.25000000,0.08000000,0.07000000,-0.01479615,0.05786053,-0.01286447,9.16000000,0.37000000,0.05000000
368,0,-0.00500000,0.15400000,0.99000000,0.15000000,0.09000000,-0.11000000,-0.01463974,0.05795437,-0.01297916,9.16000000,0.37000000,0.05000000
369,0,-0.00600000,0.15600000,0.98200000,0.29000000,0.22000000,-0.20000000,-0.01435146,0.05817307,-0.01317798,9.16000000,0.37000000,0.05000000
370,0,-0.00300000,0.15000000,0.98600000,-0.04000000,0.26000000,-0.08000000,-0.01439091,0.05842948,-0.01325687,9.16000000,0.37000000,0.05000000
371,0,-0.00400000,0.15700000,0.99100000,0.06000000,-0.03000000,-0.26000000,-0.01433145,0.05839975,-0.01351453,9.15000000,0.37000000,0.05000000
372,0,-0.00300000,0.15400000,0.98700000,-0.02000000,0.03000000,0.17000000,-0.01435138,0.05842964,-0.01334513,9.15000000,0.37000000,0.05000000
373,0,-0.00700000,0.15600000,0.99000000,-0.09000000,-0.11000000,-0.09000000,-0.01935045,0.05231967,-0.01834420,9.15000000,0.37000000,0.05000000
374,0,-0.00700000,0.15700000,0.98800000,-0.15000000,-0.03000000,0.02000000,-0.01951043,0.05228768,-0.01832287,9.15000000,0.37000000,0.05000000
375,0,-0.00400000,0.15200000,0.98600000,0.07000000,-0.07000000,-0.04000000,-0.01943996,0.05221721,-0.01836313,9.15000000,0.37000000,0.05000000
376,0,0.00100000,0.15400000,0.98800000,-0.17000000,0.15000000,-0.05000000,-0.01960944,0.05236675,-0.01841298,9.15000000,0.37000000,0.05000000
377,0,-0.00200000,0.15200000,0.99000000,-0.09000000,-0.11000000,0.07000000,-0.01969908,0.05225719,-0.01834326,9.15000000,0.37000000,0.05000000
378,0,-0.00200000,0.15500000,0.98800000,0.10000000,0.11000000,0.02000000,-0.01959931,0.05236693,-0.01832331,9.15000000,0.37000000,0.05000000
379,0,-0.00900000,0.15000000,0.98800000,0.24000000,-0.23000000,-0.29000000,-0.00627888,0.03960152,-0.03441883,9.15000000,0.37000000,0.05000000
380,0,-0.00600000,0.15200000,0.99300000,0.03000000,-0.05000000,0.14000000,-0.00624765,0.03954946,-0.03427309,9.14000000,0.37000000,0.05000000
381,0,-0.00400000,0.14800000,0.99100000,-0.05000000,0.04000000,-0.02000000,-0.00629753,0.03958937,-0.03429304,9.14000000,0.37000000,0.05000000
382,0,-0.00700000,0.15500000,0.98600000,-0.06000000,0.03000000,-0.21000000,-0.00635709,0.03961915,-0.03450149,9.14000000,0.37000000,0.05000000
383,0,-0.00400000,0.15500000,0.98900000,-0.12000000,0.07000000,0.10000000,-0.00647561,0.03968828,-0.03440273,9.14000000,0.37000000,0.05000000
384,0,0.00000000,0.15300000,0.98500000,-0.14000000,-0.15000000,0.18000000,-0.00661391,0.03954010,-0.03422491,9.13000000,0.37000000,0.05000000
385,0,-0.00600000,0.14600000,0.99300000,-0.12000000,0.13000000,-0.10000000,-0.01339992,0.04689162,-0.03987993,9.13000000,0.37000000,0.05000000
386,0,-0.00200000,0.15100000,0.98900000,0.04000000,0.09000000,0.17000000,-0.01335760,0.04698686,-0.03970003,9.13000000,0.37000000,0.05000000
387,0,0.00200000,0.15600000,0.98900000,0.02000000,-0.19000000,-0.14000000,-0.01333727,0.04679377,-0.03984231,9.13000000,0.37000000,0.05000000
388,0,-0.00900000,0.14900000,0.98900000,-0.02000000,-0.05000000,0.18000000,-0.01335852,0.04674063,-0.03965101,9.13000000,0.37000000,0.05000000
389,0,-0.00100000,0.15200000,0.98600000,-0.05000000,0.14000000,0.05000000,-0.01340811,0.04687947,-0.03960143,9.13000000,0.37000000,0.05000000
390,0,-0.00200000,0.15300000,0.98400000,0.05000000,-0.06000000,-0.11000000,-0.01335843,0.04681986,-0.03971072,9.12000000,0.36000000,0.05000000
391,0,-0.01000000,0.15500000,0.99200000,0.04000000,0.21000000,-0.04000000,-0.01114042,0.05846442,-0.04192874,9.12000000,0.36000000,0.05000000
392,0,0.00100000,0.15300000,0.99200000,0.14000000,0.15000000,-0.28000000,-0.01099501,0.05862022,-0.04221956,9.12000000,0.36000000,0.05000000
393,0,-0.01000000,0.15000000,0.98900000,-0.00000000,0.12000000,0.13000000,-0.01099501,0.05873902,-0.04209086,9.12000000,0.36000000,0.05000000
394,0,-0.00100000,0.15500000,0.98800000,-0.34000000,-0.06000000,0.03000000,-0.01133218,0.05867952,-0.04206111,9.12000000,0.36000000,0.05000000
395,0,-0.00500000,0.15300000,0.99100000,0.05000000,0.08000000,-0.06000000,-0.01128203,0.05875975,-0.04212128,9.12000000,0.36000000,0.05000000
396,0,-0.00700000,0.15700000,0.99000000,-0.06000000,-0.13000000,-0.13000000,-0.01134215,0.05862950,-0.04225153,9.11000000,0.36000000,0.05000000
397,0,-0.00200000,0.14700000,0.98700000,-0.08000000,-0.02000000,0.02000000,-0.01602535,0.05745870,-0.04108073,9.11000000,0.36000000,0.05000000
398,0,-0.00500000,0.15300000,0.99400000,0.16000000,0.15000000,-0.01000000,-0.01586012,0.05761360,-0.04109106,9.11000000,0.36000000,0.05000000
399,0,-0.00000000,0.15100000,0.99000000,0.11000000,0.09000000,0.02000000,-0.01574996,0.05770373,-0.04107103,9.11000000,0.36000000,0.05000000
400,0,-0.00500000,0.14900000,0.98900000,-0.21000000,-0.20000000,-0.16000000,-0.01595871,0.05750492,-0.04123008,9.10000000,0.36000000,0.05000000
401,0,-0.00400000,0.15400000,0.98400000,-0.12000000,0.20000000,-0.09000000,-0.01607809,0.05770388,-0.04131961,9.10000000,0.36000000,0.05000000
402,0,-0.00400000,0.15600000,0.98900000,0.04000000,-0.03000000,0.00000000,-0.01603848,0.05767418,-0.04131961,9.10000000,0.36000000,0.05000000
403,0,-0.00200000,0.14800000,0.99200000,0.20000000,0.13000000,-0.05000000,-0.01583867,0.05780406,-0.04136957,9.10000000,0.36000000,0.05000000
404,0,-0.00400000,0.15100000,0.98800000,0.10000000,0.19000000,0.02000000,-0.01018609,0.06854396,-0.04023905,9.10000000,0.36000000,0.05000000
405,0,-0.00800000,0.15000000,0.98600000,-0.11000000,-0.05000000,0.03000000,-0.01029955,0.06849238,-0.04020810,9.10000000,0.36000000,0.05000000
406,0,-0.00100000,0.15200000,0.98500000,-0.01000000,-0.19000000,-0.15000000,-0.01030944,0.06830455,-0.04035639,9.10000000,0.36000000,0.05000000
407,0,-0.00200000,0.14800000,0.99200000,-0.14000000,-0.02000000,-0.06000000,-0.01044781,0.06828479,-0.04041569,9.09000000,0.35000000,0.05000000
408,0,0.00100000,0.15100000,0.98600000,0.01000000,0.22000000,0.08000000,-0.01043770,0.06850710,-0.04033485,9.09000000,0.35000000,0.05000000
409,0,-0.00200000,0.15100000,0.98800000,0.02000000,-0.17000000,0.12000000,-0.01041754,0.06833572,-0.04021388,9.09000000,0.35000000,0.05000000
410,0,-0.00300000,0.15100000,0.98800000,-0.07000000,-0.01000000,-0.08000000,-0.01432758,0.06777714,-0.04468250,9.08000000,0.35000000,0.05000000
411,0,-0.00400000,0.14800000,0.98500000,-0.01000000,0.09000000,-0.02000000,-0.01433928,0.06788242,-0.04470589,9.08000000,0.35000000,0.05000000
412,0,-0.00100000,0.15400000,0.98800000,0.10000000,0.12000000,0.14000000,-0.01422521,0.06801930,-0.04454619,9.08000000,0.35000000,0.05000000
413,0,-0.00300000,0.14800000,0.99000000,0.04000000,0.06000000,-0.08000000,-0.01417940,0.06808802,-0.04463781,9.07000000,0.34000000,0.05000000
414,0,-0.00200000,0.15800000,0.98800000,0.04000000,-0.02000000,-0.22000000,-0.01413888,0.06806776,-0.04486070,9.07000000,0.34000000,0.05000000
415,0,-0.00800000,0.15100000,0.98700000,0.07000000,-0.02000000,0.08000000,-0.01406918,0.06804784,-0.04478105,9.07000000,0.34000000,0.05000000
416,0,-0.00100000,0.15100000,0.98800000,0.22000000,-0.21000000,-0.11000000,-0.00202453,0.05655068,-0.05080337,9.07000000,0.34000000,0.05000000
417,0,-0.00600000,0.15100000,0.98600000,0.04000000,0.01000000,-0.04000000,-0.00198314,0.05656102,-0.05084475,9.07000000,0.34000000,0.05000000
418,0,-0.00500000,0.15100000,0.98900000,-0.10000000,0.17000000,0.24000000,-0.00208257,0.05673006,-0.05060612,9.06000000,0.34000000,0.05000000
419,0,-0.00100000,0.15100000,0.99100000,0.26000000,-0.11000000,-0.06000000,-0.00182591,0.05662147,-0.05066535,9.06000000,0.34000000,0.05000000
420,0,0.00100000,0.14800000,0.99000000,-0.10000000,-0.15000000,-0.01000000,-0.00192563,0.05647189,-0.05067532,9.06000000,0.34000000,0.05000000
421,0,-0.00100000,0.15300000,0.98500000,0.01000000,0.07000000,-0.10000000,-0.00191560,0.05654209,-0.05077561,9.06000000,0.34000000,0.05000000
422,0,-0.00200000,0.14800000,0.99100000,-0.07000000,-0.14000000,0.02000000,-0.00587408,0.04862514,-0.04964462,9.05000000,0.34000000,0.05000000
423,0,-0.00100000,0.14600000,0.98700000,0.04000000,-0.21000000,0.07000000,-0.00583246,0.04840668,-0.04957179,9.05000000,0.34000000,0.05000000
424,0,-0.00400000,0.15700000,0.98700000,-0.23000000,0.29000000,-0.04000000,-0.00607031,0.04870657,-0.04961316,9.05000000,0.34000000,0.05000000
425,0,-0.00200000,0.14900000,0.99100000,-0.05000000,0.19000000,0.30000000,-0.00612213,0.04890346,-0.04930228,9.05000000,0.34000000,0.05000000
426,0,-0.00500000,0.14900000,0.98900000,-0.02000000,0.06000000,0.07000000,-0.00614224,0.04896381,-0.04923187,9.04000000,0.33000000,0.05000000
427,0,-0.00600000,0.15000000,0.98900000,0.06000000,-0.00000000,0.06000000,-0.00608218,0.04896381,-0.04917182,9.04000000,0.33000000,0.05000000
428,0,-0.00500000,0.14700000,0.99000000,0.33000000,-0.11000000,0.04000000,0.01221217,0.04286569,-0.04695432,9.04000000,0.33000000,0.05000000
429,0,-0.00300000,0.14700000,0.98500000,-0.09000000,-0.15000000,0.13000000,0.01211906,0.04271050,-0.04681982,9.04000000,0.33000000,0.05000000
430,0,-0.00500000,0.15000000,0.98700000,0.05000000,-0.38000000,0.22000000,0.01216876,0.04233275,-0.04660113,9.03000000,0.33000000,0.05000000
431,0,0.00000000,0.14800000,0.98600000,0.01000000,-0.05000000,-0.19000000,0.01217881,0.04228251,-0.04679204,9.03000000,0.33000000,0.05000000
432,0,0.00200000,0.14900000,0.98700000,-0.06000000,0.05000000,0.07000000,0.01211863,0.04233266,-0.04672183,9.03000000,0.33000000,0.05000000
433,0,-0.00700000,0.14900000,0.98900000,-0.17000000,0.09000000,0.16000000,0.01194855,0.04242270,-0.04656175,9.02000000,0.33000000,0.05000000
434,0,-0.00300000,0.15100000,0.99000000,-0.17000000,0.02000000,0.17000000,0.00249768,0.04353457,-0.03711088,9.02000000,0.33000000,0.05000000
435,0,-0.00600000,0.14600000,0.98900000,0.08000000,0.19000000,0.16000000,0.00258088,0.04373219,-0.03694447,9.02000000,0.33000000,0.05000000
436,0,-0.00200000,0.15000000,0.98800000,-0.26000000,0.19000000,0.08000000,0.00232137,0.04392183,-0.03686462,9.02000000,0.33000000,0.05000000
437,0,-0.00500000,0.15100000,0.98800000,-0.07000000,0.07000000,0.12000000,0.00225135,0.04399185,-0.03674459,9.02000000,0.33000000,0.05000000
438,0,-0.00100000,0.15000000,0.98800000,0.04000000,0.11000000,0.02000000,0.00229104,0.04410099,-0.03672474,9.02000000,0.33000000,0.05000000
439,0,-0.00600000,0.15400000,0.99200000,0.21000000,0.19000000,0.11000000,0.00249989,0.04428995,-0.03661534,9.02000000,0.33000000,0.05000000
440,0,-0.00600000,0.15100000,0.98900000,-0.04000000,0.25000000,-0.14000000,0.00023926,0.05841890,-0.04452756,9.02000000,0.33000000,0.06000000
441,0,-0.00700000,0.14600000,0.99300000,0.10000000,0.06000000,-0.22000000,0.00034236,0.05848076,-0.04475438,9.01000000,0.33000000,0.06000000
442,0,-0.00000000,0.15000000,0.98600000,0.18000000,-0.24000000,0.01000000,0.00052246,0.05824064,-0.04474438,9.01000000,0.33000000,0.05000000
443,0,0.00200000,0.14800000,0.98800000,-0.06000000,-0.04000000,-0.09000000,0.00046032,0.05819922,-0.04483758,9.01000000,0.33000000,0.05000000
444,0,-0.00200000,0.14700000,0.98800000,-0.01000000,0.32000000,0.16000000,0.00045032,0.05851946,-0.04467746,9.01000000,0.33000000,0.05000000
445,0,0.00100000,0.14900000,0.99200000,0.18000000,0.04000000,0.13000000,0.00063354,0.05856017,-0.04454513,9.01000000,0.32000000,0.06000000
446,0,-0.00600000,0.15200000,0.98800000,0.02000000,0.24000000,-0.27000000,0.00174373,0.07188244,-0.05953267,9.01000000,0.32000000,0.05000000
447,0,-0.00300000,0.15200000,0.99100000,0.13000000,-0.20000000,-0.16000000,0.00187971,0.07167323,-0.05970004,9.01000000,0.32000000,0.06000000
448,0,-0.00900000,0.15100000,0.98900000,-0.05000000,-0.07000000,0.02000000,0.00182900,0.07160222,-0.05967976,9.00000000,0.32000000,0.06000000
449,0,-0.00000000,0.14900000,0.99500000,0.03000000,-0.16000000,0.06000000,0.00185894,0.07144252,-0.05961987,9.00000000,0.32000000,0.06000000
450,0,-0.00200000,0.15000000,0.98900000,-0.01000000,0.09000000,-0.16000000,0.00184899,0.07153210,-0.05977911,9.00000000,0.32000000,0.05000000
451,0,-0.00100000,0.14800000,0.99100000,0.01000000,0.13000000,-0.21000000,0.00185897,0.07166182,-0.05998867,9.00000000,0.32000000,0.05000000
452,0,-0.00100000,0.15000000,0.98700000,-0.01000000,0.13000000,0.01000000,0.00130429,0.07887259,-0.05943399,8.99000000,0.32000000,0.05000000
453,0,-0.00400000,0.15000000,0.98900000,0.01000000,-0.04000000,-0.00000000,0.00131538,0.07882825,-0.05943399,8.99000000,0.32000000,0.05000000
454,0,-0.00000000,0.15000000,0.98800000,0.16000000,0.26000000,0.25000000,0.00148858,0.07910971,-0.05916336,8.99000000,0.32000000,0.05000000
455,0,-0.00600000,0.14900000,0.98400000,0.02000000,-0.08000000,-0.04000000,0.00150947,0.07902614,-0.05920514,8.99000000,0.32000000,0.06000000
456,0,-0.00400000,0.14800000,0.99000000,0.20000000,-0.18000000,-0.29000000,0.00171611,0.07884017,-0.05950476,8.99000000,0.32000000,0.06000000
457,0,-0.00200000,0.15000000,0.98800000,0.21000000,0.05000000,-0.22000000,0.00192601,0.07889015,-0.05972467,8.98000000,0.31000000,0.05000000
458,0,-0.00500000,0.14900000,0.98900000,0.24000000,0.02000000,-0.04000000,0.01542234,0.08001484,-0.06197405,8.98000000,0.31000000,0.05000000
459,0,-0.00500000,0.14800000,0.98800000,-0.02000000,0.12000000,0.28000000,0.01540141,0.08014045,-0.06168096,8.98000000,0.31000000,0.06000000
460,0,-0.00800000,0.14900000,0.99100000,0.26000000,-0.16000000,-0.01000000,0.01566141,0.07998045,-0.06169096,8.98000000,0.31000000,0.06000000
461,0,-0.00500000,0.15000000,0.98900000,-0.13000000,-0.18000000,-0.31000000,0.01553274,0.07980229,-0.06199779,8.98000000,0.31000000,0.06000000
462,0,-0.00500000,0.14700000,0.98900000,-0.02000000,-0.01000000,0.18000000,0.01551297,0.07979240,-0.06181980,8.98000000,0.31000000,0.05000000
463,0,-0.00000000,0.15100000,0.99100000,0.26000000,0.11000000,-0.13000000,0.01577273,0.07990230,-0.06194968,8.98000000,0.31000000,0.06000000
464,0,-0.00600000,0.15100000,0.99000000,0.08000000,0.19000000,-0.06000000,0.02021680,0.09045697,-0.06528274,8.97000000,0.31000000,0.05000000
465,0,-0.00500000,0.15100000,0.98800000,-0.18000000,0.27000000,-0.12000000,0.02002722,0.09074134,-0.06540912,8.97000000,0.31000000,0.05000000
466,0,-0.00400000,0.14700000,0.99300000,0.16000000,-0.15000000,0.19000000,0.02018773,0.09059087,-0.06521853,8.97000000,0.31000000,0.05000000
467,0,-0.00300000,0.15100000,0.98900000,-0.11000000,-0.13000000,-0.03000000,0.02007958,0.09046306,-0.06524802,8.97000000,0.31000000,0.06000000
468,0,-0.00300000,0.14600000,0.99700000,0.14000000,-0.09000000,-0.05000000,0.02021708,0.09037467,-0.06529713,8.97000000,0.31000000,0.06000000
469,0,-0.00700000,0.14900000,0.98800000,-0.09000000,0.14000000,0.07000000,0.02012777,0.09051361,-0.06522766,8.97000000,0.31000000,0.05000000
470,0,-0.00300000,0.14600000,0.99500000,0.06000000,0.19000000,-0.19000000,0.02347035,0.10109845,-0.07581250,8.97000000,0.31000000,0.05000000
471,0,-0.00400000,0.14600000,0.98600000,0.23000000,-0.09000000,0.11000000,0.02371313,0.10100345,-0.07569639,8.97000000,0.31000000,0.05000000
472,0,-0.00400000,0.14600000,0.99000000,0.23000000,-0.02000000,0.02000000,0.02394380,0.10098339,-0.07567633,8.96000000,0.31000000,0.05000000
473,0,-0.00500000,0.15000000,0.98600000,0.24000000,0.01000000,-0.07000000,0.02418083,0.10099327,-0.07574547,8.96000000,0.31000000,0.05000000
474,0,-0.00200000,0.15000000,0.99100000,0.10000000,-0.19000000,0.31000000,0.02428107,0.10080281,-0.07543472,8.96000000,0.31000000,0.05000000
475,0,-0.00300000,0.14800000,0.98700000,0.17000000,-0.02000000,0.07000000,0.02445233,0.10078266,-0.07536420,8.96000000,0.30000000,0.05000000
476,0,-0.00700000,0.14800000,0.98700000,0.15000000,0.04000000,0.16000000,0.03290349,0.10303630,-0.06634963,8.96000000,0.31000000,0.05000000
477,0,0.00000000,0.15100000,0.99100000,0.22000000,-0.14000000,-0.07000000,0.03313152,0.10289119,-0.06642219,8.96000000,0.30000000,0.05000000
478,0,-0.00200000,0.15200000,0.99100000,0.22000000,-0.07000000,0.01000000,0.03334995,0.10282169,-0.06641226,8.96000000,0.30000000,0.05000000
479,0,-0.01000000,0.15100000,0.98900000,0.23000000,0.38000000,0.10000000,0.03359038,0.10321891,-0.06630773,8.96000000,0.30000000,0.05000000
480,0,0.00100000,0.14900000,0.99500000,0.09000000,-0.01000000,0.10000000,0.03368163,0.10320877,-0.06620634,8.96000000,0.30000000,0.05000000
481,0,0.00400000,0.14600000,0.98500000,-0.19000000,0.10000000,-0.08000000,0.03348270,0.10331347,-0.06629010,8.96000000,0.30000000,0.05000000
482,0,-0.00300000,0.15000000,0.99300000,0.01000000,-0.02000000,0.18000000,0.03403711,0.10220465,-0.05631072,8.96000000,0.30000000,0.06000000
483,0,-0.00300000,0.15000000,0.99000000,0.14000000,0.05000000,-0.22000000,0.03418329,0.10225686,-0.05654043,8.95000000,0.30000000,0.06000000
484,0,0.00100000,0.15000000,0.98900000,0.09000000,0.11000000,0.05000000,0.03427262,0.10236605,-0.05649080,8.95000000,0.30000000,0.06000000
485,0,-0.00100000,0.14600000,0.99600000,0.15000000,-0.22000000,0.05000000,0.03442477,0.10214290,-0.05644008,8.95000000,0.30000000,0.06000000
486,0,-0.00500000,0.15000000,0.99000000,0.04000000,0.25000000,0.06000000,0.03446488,0.10239356,-0.05637992,8.95000000,0.30000000,0.06000000
487,0,0.00100000,0.14800000,0.98500000,0.14000000,-0.21000000,-0.04000000,0.03460562,0.10218245,-0.05642013,8.95000000,0.30000000,0.06000000
488,0,-0.00700000,0.14800000,0.99000000,0.24000000,0.19000000,0.19000000,0.04794940,0.11274628,-0.04585631,8.94000000,0.30000000,0.06000000
489,0,-0.00100000,0.15000000,0.98800000,-0.13000000,0.10000000,-0.31000000,0.04781391,0.11285050,-0.04617940,8.94000000,0.30000000,0.06000000
490,0,-0.00100000,0.15300000,0.98900000,0.27000000,-0.15000000,0.05000000,0.04808147,0.11270185,-0.04612985,8.94000000,0.30000000,0.06000000
491,0,0.00000000,0.14100000,0.99100000,-0.05000000,0.27000000,-0.10000000,0.04803239,0.11296691,-0.04622802,8.94000000,0.30000000,0.06000000
492,0,-0.00100000,0.15200000,0.99200000,0.14000000,0.16000000,0.14000000,0.04816995,0.11312413,-0.04609045,8.93000000,0.30000000,0.06000000
493,0,-0.00600000,0.14900000,0.98700000,0.25000000,-0.03000000,0.07000000,0.04843540,0.11309227,-0.04601613,8.93000000,0.30000000,0.06000000
494,0,-0.00500000,0.15200000,0.98600000,0.24000000,0.14000000,0.00000000,0.06197001,0.12098746,-0.04601613,8.93000000,0.30000000,0.06000000
495,0,-0.00600000,0.14700000,0.99200000,-0.26000000,0.15000000,-0.04000000,0.06170076,0.12114279,-0.04605755,8.93000000,0.30000000,0.06000000
496,0,-0.00100000,0.14700000,0.99200000,0.06000000,-0.15000000,-0.10000000,0.06175995,0.12099483,-0.04615619,8.93000000,0.30000000,0.06000000
497,0,0.00000000,0.15100000,0.99100000,-0.11000000,-0.10000000,0.32000000,0.06165118,0.12089595,-0.04583977,8.93000000,0.30000000,0.06000000
498,0,-0.00200000,0.15100000,0.98800000,-0.08000000,0.15000000,0.20000000,0.06156998,0.12104820,-0.04563676,8.92000000,0.30000000,0.06000000
499,0,-0.00100000,0.15400000,0.98700000,-0.12000000,-0.04000000,0.10000000,0.06144931,0.12100798,-0.04553621,8.92000000,0.30000000,0.06000000
500,0,-0.00400000,0.14800000,0.98900000,-0.06000000,0.28000000,0.00000000,0.05810524,0.13661364,-0.04553621,8.92000000,0.30000000,0.06000000
501,0,-0.00200000,0.14500000,0.98600000,0.00000000,0.18000000,0.16000000,0.05810524,0.13683991,-0.04533508,8.92000000,0.30000000,0.06000000
502,0,-0.00700000,0.14800000,0.98900000,0.02000000,-0.17000000,-0.03000000,0.05812756,0.13665021,-0.04536856,8.92000000,0.30000000,0.06000000
503,0,0.00100000,0.15000000,0.99200000,-0.12000000,0.07000000,0.16000000,0.05799411,0.13672805,-0.04519062,8.91000000,0.29000000,0.06000000
504,0,-0.00300000,0.14700000,0.98900000,-0.09000000,0.10000000,-0.16000000,0.05790445,0.13682767,-0.04535002,8.91000000,0.30000000,0.06000000
505,0,-0.00300000,0.14600000,0.98600000,0.21000000,0.06000000,-0.04000000,0.05811311,0.13688729,-0.04538976,8.91000000,0.30000000,0.06000000
506,0,0.00000000,0.14900000,0.98500000,-0.04000000,0.02000000,0.23000000,0.05590832,0.13798968,-0.03271225,8.91000000,0.30000000,0.06000000
507,0,-0.00800000,0.14800000,0.98600000,0.02000000,-0.01000000,0.04000000,0.05593350,0.13797709,-0.03266189,8.91000000,0.29000000,0.06000000
508,0,0.00300000,0.14500000,0.98600000,0.19000000,0.01000000,0.08000000,0.05613728,0.13798782,-0.03257609,8.91000000,0.29000000,0.06000000
509,0,-0.00400000,0.14900000,0.98800000,-0.19000000,-0.21000000,-0.25000000,0.05593472,0.13776394,-0.03284261,8.90000000,0.29000000,0.06000000
510,0,-0.00100000,0.15100000,0.98900000,0.16000000,0.25000000,0.16000000,0.05610472,0.13802957,-0.03267261,8.90000000,0.29000000,0.06000000
511,0,-0.00800000,0.14900000,0.98600000,0.08000000,0.15000000,-0.05000000,0.05619096,0.13819127,-0.03272651,8.90000000,0.29000000,0.06000000
512,0,-0.00500000,0.14700000,0.98600000,-0.01000000,0.03000000,-0.24000000,0.05563269,0.13986610,-0.04612516,8.90000000,0.29000000,0.06000000
513,0,-0.00200000,0.14400000,0.99200000,-0.09000000,0.09000000,-0.10000000,0.05553080,0.13996799,-0.04623837,8.90000000,0.29000000,0.06000000
514,0,-0.00200000,0.15000000,0.98800000,-0.17000000,-0.08000000,-0.23000000,0.05533331,0.13987505,-0.04650556,8.90000000,0.29000000,0.06000000
515,0,-0.00700000,0.15100000,0.98700000,0.01000000,0.16000000,-0.14000000,0.05534504,0.14006279,-0.04666983,8.89000000,0.29000000,0.06000000
516,0,0.00200000,0.15100000,0.98800000,0.21000000,0.02000000,-0.03000000,0.05559856,0.14008694,-0.04670605,8.89000000,0.29000000,0.06000000
517,0,-0.00100000,0.15100000,0.98800000,-0.11000000,0.12000000,-0.07000000,0.05548003,0.14021624,-0.04678147,8.89000000,0.29000000,0.06000000
518,0,-0.00000000,0.14700000,0.98900000,-0.23000000,-0.25000000,-0.08000000,0.04287540,0.12651555,-0.05116569,8.89000000,0.29000000,0.06000000
519,0,-0.00100000,0.15100000,0.98600000,0.25000000,0.13000000,-0.25000000,0.04314221,0.12665429,-0.05143251,8.89000000,0.29000000,0.06000000
520,0,-0.00100000,0.15200000,0.98700000,0.18000000,0.05000000,0.30000000,0.04332497,0.12670506,-0.05112792,8.89000000,0.29000000,0.06000000
521,0,-0.00200000,0.14700000,0.98700000,0.26000000,-0.09000000,0.17000000,0.04358665,0.12661447,-0.05095682,8.88000000,0.28000000,0.06000000
522,0,-0.00800000,0.14700000,0.99200000,0.24000000,0.17000000,-0.21000000,0.04382688,0.12678464,-0.05116703,8.88000000,0.28000000,0.06000000
523,0,-0.00600000,0.14900000,0.98700000,0.01000000,-0.07000000,-0.04000000,0.04383706,0.12671342,-0.05120773,8.88000000,0.28000000,0.06000000
524,0,-0.00700000,0.14500000,0.98500000,-0.01000000,-0.27000000,-0.16000000,0.04325121,0.11089559,-0.06058126,8.88000000,0.28000000,0.06000000
525,0,-0.00500000,0.14500000,0.98700000,0.17000000,0.08000000,0.17000000,0.04344002,0.11098444,-0.06039244,8.88000000,0.28000000,0.06000000
526,0,-0.00600000,0.15100000,0.99000000,0.01000000,-0.16000000,-0.10000000,0.04345075,0.11081280,-0.06049972,8.88000000,0.28000000,0.06000000
527,0,-0.00600000,0.15100000,0.99100000,0.14000000,0.01000000,-0.20000000,0.04360564,0.11082387,-0.06072099,8.88000000,0.28000000,0.06000000
528,0,-0.00400000,0.14400000,0.99400000,-0.00000000,0.26000000,-0.06000000,0.04360564,0.11111022,-0.06078707,8.88000000,0.28000000,0.06000000
529,0,-0.00300000,0.14900000,0.98800000,0.05000000,0.31000000,-0.32000000,0.04365879,0.11143974,-0.06112722,8.87000000,0.28000000,0.06000000
530,0,-0.00400000,0.14700000,0.98700000,-0.05000000,0.01000000,-0.04000000,0.04360363,0.11145078,-0.06117136,8.87000000,0.28000000,0.06000000
531,0,-0.00200000,0.14900000,0.99000000,0.07000000,0.02000000,-0.10000000,0.04750898,0.11256659,-0.06675043,8.87000000,0.28000000,0.06000000
532,0,-0.00300000,0.14900000,0.98800000,0.03000000,-0.14000000,0.05000000,0.04754189,0.11241303,-0.06669559,8.86000000,0.28000000,0.06000000
533,0,0.00100000,0.14500000,0.98700000,0.08000000,0.24000000,0.14000000,0.04763614,0.11269579,-0.06653065,8.86000000,0.28000000,0.06000000
534,0,0.00300000,0.14300000,0.98900000,0.06000000,0.16000000,-0.19000000,0.04770866,0.11288917,-0.06676030,8.86000000,0.28000000,0.06000000
535,0,-0.00000000,0.14100000,0.99200000,-0.05000000,-0.19000000,0.26000000,0.04765454,0.11268354,-0.06647890,8.86000000,0.28000000,0.06000000
536,0,-0.00200000,0.14700000,0.98800000,-0.03000000,0.02000000,0.17000000,0.04760099,0.11271924,-0.06617543,8.86000000,0.27000000,0.06000000
537,0,0.00100000,0.14600000,0.98700000,-0.22000000,0.26000000,0.02000000,0.03566727,0.12682272,-0.06509054,8.85000000,0.27000000,0.06000000
538,0,-0.00500000,0.15000000,0.98700000,0.18000000,-0.06000000,0.08000000,0.03585651,0.12675964,-0.06500644,8.85000000,0.27000000,0.06000000
539,0,0.00100000,0.15100000,0.98800000,-0.01000000,-0.15000000,-0.05000000,0.03584632,0.12660688,-0.06505736,8.85000000,0.27000000,0.06000000
540,0,-0.00700000,0.14900000,0.98800000,0.10000000,-0.10000000,0.17000000,0.03594711,0.12650609,-0.06488602,8.85000000,0.27000000,0.06000000
541,0,-0.00400000,0.15100000,0.99000000,0.01000000,0.13000000,0.15000000,0.03595758,0.12664217,-0.06472900,8.85000000,0.27000000,0.06000000
542,0,-0.00200000,0.15000000,0.98800000,0.21000000,0.16000000,0.04000000,0.03617560,0.12680828,-0.06468748,8.85000000,0.27000000,0.06000000
543,0,-0.00500000,0.14800000,0.98800000,0.19000000,0.06000000,0.12000000,0.04672561,0.13013986,-0.05802431,8.85000000,0.27000000,0.06000000
544,0,-0.00400000,0.14800000,0.99200000,-0.04000000,-0.19000000,0.27000000,0.04668389,0.12994170,-0.05774272,8.85000000,0.27000000,0.06000000
545,0,-0.00000000,0.14800000,0.99200000,0.09000000,0.11000000,0.16000000,0.04677511,0.13005320,-0.05758054,8.85000000,0.27000000,0.06000000
546,0,-0.00400000,0.14700000,0.99200000,-0.13000000,-0.15000000,0.08000000,0.04664468,0.12990269,-0.05750027,8.85000000,0.27000000,0.06000000
547,0,0.00400000,0.13800000,0.98800000,0.27000000,-0.15000000,-0.07000000,0.04691288,0.12975369,-0.05756980,8.84000000,0.27000000,0.06000000
548,0,-0.00700000,0.14900000,0.99400000,0.01000000,0.16000000,-0.10000000,0.04692287,0.12991346,-0.05766966,8.84000000,0.27000000,0.06000000
549,0,-0.00500000,0.14900000,0.99200000,0.37000000,-0.31000000,0.24000000,0.06777055,0.11244649,-0.04414684,8.84000000,0.27000000,0.06000000
550,0,-0.00400000,0.14500000,0.99300000,0.07000000,-0.00000000,-0.27000000,0.06784406,0.11244649,-0.04443037,8.84000000,0.27000000,0.06000000
551,0,0.00300000,0.14900000,0.99300000,-0.01000000,0.11000000,-0.07000000,0.06783407,0.11255639,-0.04450030,8.84000000,0.26000000,0.06000000
552,0,-0.00200000,0.14800000,0.99500000,0.08000000,-0.04000000,-0.10000000,0.06791388,0.11251648,-0.04460007,8.84000000,0.26000000,0.06000000
553,0,-0.00100000,0.14700000,0.98800000,-0.08000000,-0.07000000,0.16000000,0.06783437,0.11244691,-0.04444106,8.84000000,0.26000000,0.06000000
554,0,-0.00100000,0.14300000,0.99200000,0.03000000,-0.24000000,-0.15000000,0.06786452,0.11220570,-0.04459181,8.83000000,0.26000000,0.06000000
555,0,-0.00200000,0.14900000,0.99200000,0.15000000,-0.08000000,0.02000000,0.07619358,0.10776354,-0.04348127,8.83000000,0.26000000,0.06000000
556,0,-0.00400000,0.14500000,0.98900000,-0.20000000,0.14000000,0.08000000,0.07597837,0.10791419,-0.04339518,8.83000000,0.26000000,0.06000000
557,0,-0.00500000,0.14600000,0.99200000,0.06000000,0.09000000,0.03000000,0.07603858,0.10800451,-0.04336508,8.83000000,0.26000000,0.06000000
558,0,-0.00400000,0.14300000,0.99100000,-0.00000000,-0.12000000,0.30000000,0.07603858,0.10788357,-0.04306271,8.83000000,0.26000000,0.06000000
559,0,-0.00500000,0.14700000,0.99000000,-0.15000000,0.00000000,-0.10000000,0.07588146,0.10788357,-0.04316745,8.83000000,0.26000000,0.06000000
560,0,-0.00500000,0.14900000,0.99100000,-0.06000000,0.11000000,-0.06000000,0.07582069,0.10799499,-0.04322823,8.83000000,0.26000000,0.06000000
561,0,0.00200000,0.14700000,0.98600000,0.04000000,-0.17000000,0.19000000,0.07804311,0.09854971,-0.03267174,8.82000000,0.26000000,0.06000000
562,0,-0.00400000,0.14500000,0.98900000,0.12000000,0.05000000,0.11000000,0.07817072,0.09860288,-0.03255476,8.82000000,0.26000000,0.06000000
563,0,0.00100000,0.14900000,0.98600000,-0.02000000,-0.24000000,-0.14000000,0.07815071,0.09836276,-0.03269483,8.82000000,0.26000000,0.06000000
564,0,0.00100000,0.14600000,0.98700000,-0.07000000,0.32000000,-0.14000000,0.07808086,0.09868208,-0.03283454,8.82000000,0.26000000,0.06000000
565,0,-0.00700000,0.14800000,0.99200000,0.18000000,0.14000000,0.17000000,0.07826052,0.09882182,-0.03266486,8.82000000,0.26000000,0.06000000
566,0,-0.00600000,0.14400000,0.98600000,0.02000000,0.00000000,0.08000000,0.07828064,0.09882182,-0.03258436,8.82000000,0.26000000,0.06000000
567,0,-0.00200000,0.14800000,0.98700000,0.11000000,-0.24000000,-0.13000000,0.08447834,0.08529957,-0.03990891,8.81000000,0.26000000,0.06000000
568,0,-0.00200000,0.14700000,0.99300000,0.05000000,-0.09000000,0.09000000,0.08453085,0.08520506,-0.03981440,8.81000000,0.26000000,0.06000000
569,0,-0.00200000,0.14400000,0.98700000,-0.01000000,0.16000000,0.08000000,0.08452083,0.08536541,-0.03973423,8.81000000,0.26000000,0.06000000
570,0,-0.00200000,0.14500000,0.99000000,-0.15000000,-0.02000000,-0.22000000,0.08436907,0.08534518,-0.03995680,8.81000000,0.26000000,0.06000000
571,0,-0.00200000,0.14300000,0.99200000,-0.01000000,0.10000000,0.06000000,0.08435849,0.08545097,-0.03989333,8.81000000,0.26000000,0.06000000
572,0,-0.00100000,0.14600000,0.98700000,0.29000000,0.26000000,0.26000000,0.08466647,0.08572710,-0.03961720,8.80000000,0.26000000,0.06000000
573,0,-0.00100000,0.14200000,0.98300000,0.16000000,0.18000000,0.00000000,0.09352815,0.09569648,-0.03961720,8.80000000,0.26000000,0.07000000
574,0,0.00100000,0.14900000,0.98800000,0.12000000,0.21000000,-0.10000000,0.09365751,0.09592286,-0.03972500,8.80000000,0.26000000,0.06000000
575,0,0.00800000,0.14900000,0.98600000,-0.04000000,-0.23000000,0.17000000,0.09361706,0.09569027,-0.03955309,8.80000000,0.25000000,0.07000000
576,0,-0.00600000,0.14700000,0.99000000,0.15000000,0.02000000,0.11000000,0.09376731,0.09571031,-0.03944290,8.80000000,0.25000000,0.07000000
577,0,-0.00300000,0.14800000,0.98900000,0.24000000,-0.01000000,-0.10000000,0.09400881,0.09570024,-0.03954353,8.80000000,0.25000000,0.06000000
578,0,0.00000000,0.14400000,0.99200000,0.10000000,0.00000000,-0.09000000,0.09410912,0.09570024,-0.03963381,8.80000000,0.25000000,0.07000000
579,0,-0.00200000,0.15000000,0.99000000,0.06000000,0.21000000,0.09000000,0.09745546,0.10741245,-0.03461429,8.79000000,0.26000000,0.07000000
580,0,-0.00200000,0.14200000,0.99200000,-0.22000000,-0.05000000,0.04000000,0.09722350,0.10735973,-0.03457212,8.79000000,0.25000000,0.07000000
581,0,-0.00300000,0.15000000,0.98700000,0.07000000,0.12000000,-0.23000000,0.09729387,0.10748036,-0.03480333,8.79000000,0.25000000,0.07000000
582,0,-0.00300000,0.14700000,0.99400000,0.09000000,-0.13000000,-0.12000000,0.09738372,0.10735058,-0.03492313,8.78000000,0.25000000,0.06000000
583,0,-0.00400000,0.14600000,0.99300000,0.13000000,0.08000000,0.03000000,0.09751661,0.10743235,-0.03489247,8.78000000,0.25000000,0.06000000
584,0,0.00100000,0.14100000,0.99100000,0.23000000,-0.11000000,0.30000000,0.09775308,0.10731925,-0.03458402,8.78000000,0.25000000,0.06000000
585,0,-0.00200000,0.14200000,0.98800000,-0.12000000,0.34000000,-0.09000000,0.09101762,0.12640306,-0.03963561,8.78000000,0.25000000,0.06000000
586,0,-0.00100000,0.14300000,0.98700000,0.12000000,0.17000000,0.26000000,0.09114489,0.12658336,-0.03935986,8.78000000,0.25000000,0.07000000
587,0,-0.00300000,0.14800000,0.98500000,0.09000000,0.01000000,0.08000000,0.09123560,0.12659344,-0.03927923,8.77000000,0.25000000,0.07000000
588,0,-0.00200000,0.14700000,0.99000000,-0.06000000,-0.15000000,0.08000000,0.09117519,0.12644240,-0.03919867,8.78000000,0.25000000,0.07000000
589,0,-0.00400000,0.14600000,0.99400000,0.27000000,-0.12000000,0.06000000,0.09144494,0.12632251,-0.03913873,8.78000000,0.25000000,0.07000000
590,0,0.00100000,0.14600000,0.98800000,-0.07000000,0.01000000,0.17000000,0.09137517,0.12633248,-0.03896929,8.78000000,0.25000000,0.07000000
591,0,-0.00000000,0.14500000,0.98800000,0.12000000,-0.25000000,-0.06000000,0.09803364,0.11246066,-0.04229853,8.77000000,0.25000000,0.07000000
592,0,0.00200000,0.15200000,0.98700000,0.02000000,-0.16000000,-0.15000000,0.09805481,0.11229127,-0.04245733,8.77000000,0.24000000,0.07000000
593,0,-0.00400000,0.14600000,0.98800000,0.18000000,0.26000000,0.26000000,0.09823658,0.11255382,-0.04219478,8.77000000,0.25000000,0.07000000
594,0,0.00200000,0.15100000,0.98600000,0.16000000,0.25000000,-0.03000000,0.09839952,0.11280842,-0.04222533,8.77000000,0.25000000,0.07000000
595,0,0.00200000,0.14700000,0.99000000,0.14000000,0.15000000,0.05000000,0.09854013,0.11295907,-0.04217511,8.77000000,0.25000000,0.07000000
596,0,-0.00600000,0.14300000,0.99100000,0.12000000,-0.03000000,0.04000000,0.09866087,0.11292888,-0.04213486,8.77000000,0.25000000,0.07000000
597,0,-0.00300000,0.14700000,0.98700000,0.13000000,-0.15000000,-0.17000000,0.10589979,0.10457629,-0.05160114,8.77000000,0.25000000,0.07000000
598,0,-0.00300000,0.14300000,0.99000000,0.06000000,0.11000000,0.03000000,0.10596209,0.10469051,-0.05156998,8.77000000,0.25000000,0.07000000
599,0,-0.00100000,0.14900000,0.98800000,0.09000000,0.13000000,-0.06000000,0.10605295,0.10482176,-0.05163056,8.77000000,0.25000000,0.06000000
600,0,-0.00400000,0.13900000,0.99000000,0.18000000,-0.03000000,-0.10000000,0.10623515,0.10479139,-0.05173178,8.76000000,0.25000000,0.06000000
601,0,-0.00600000,0.14800000,0.98600000,0.13000000,0.03000000,-0.15000000,0.10636444,0.10482123,-0.05188096,8.76000000,0.24000000,0.06000000
602,0,0.00200000,0.14400000,0.99100000,0.12000000,0.08000000,-0.08000000,0.10648378,0.10490079,-0.05196052,8.76000000,0.24000000,0.06000000
603,0,0.00100000,0.14700000,0.98400000,0.15000000,-0.07000000,-0.14000000,0.11494023,0.10095445,-0.05985321,8.76000000,0.24000000,0.06000000
604,0,-0.00000000,0.14800000,0.98500000,0.02000000,0.07000000,0.20000000,0.11496149,0.10102886,-0.05964061,8.76000000,0.24000000,0.06000000
605,0,-0.00200000,0.14500000,0.98700000,-0.00000000,0.16000000,-0.03000000,0.11496149,0.10119226,-0.05967125,8.76000000,0.24000000,0.06000000
606,0,-0.00500000,0.14700000,0.99200000,0.07000000,0.18000000,0.10000000,0.11503134,0.10137188,-0.05957146,8.76000000,0.24000000,0.06000000
607,0,-0.00200000,0.14800000,0.99100000,0.22000000,-0.02000000,-0.15000000,0.11525035,0.10135197,-0.05972079,8.75000000,0.24000000,0.06000000
608,0,-0.00400000,0.14800000,0.98700000,0.05000000,0.18000000,-0.06000000,0.11530036,0.10153197,-0.05978079,8.75000000,0.24000000,0.06000000
609,0,0.00000000,0.14400000,0.99200000,-0.10000000,0.18000000,-0.22000000,0.10976036,0.11150397,-0.07196879,8.75000000,0.24000000,0.06000000
610,0,-0.00200000,0.14500000,0.99100000,0.22000000,-0.04000000,0.19000000,0.10999285,0.11146170,-0.07176800,8.75000000,0.24000000,0.06000000
611,0,0.00300000,0.15100000,0.98900000,0.05000000,0.07000000,-0.22000000,0.11004368,0.11153287,-0.07199168,8.75000000,0.24000000,0.06000000
612,0,-0.00200000,0.14500000,0.98800000,-0.05000000,0.04000000,0.11000000,0.10999356,0.11157297,-0.07188141,8.74000000,0.24000000,0.06000000
613,0,-0.00500000,0.14500000,0.98500000,-0.04000000,0.08000000,-0.12000000,0.10995334,0.11165341,-0.07200208,8.74000000,0.24000000,0.06000000
614,0,-0.00400000,0.14700000,0.98800000,-0.10000000,0.04000000,-0.11000000,0.10985317,0.11169348,-0.07211226,8.74000000,0.24000000,0.06000000
615,0,0.00100000,0.14300000,0.98700000,-0.08000000,-0.03000000,0.08000000,0.10533488,0.10999912,-0.06759397,8.74000000,0.24000000,0.06000000
616,0,-0.00200000,0.14500000,0.99000000,0.29000000,0.06000000,-0.11000000,0.10564121,0.11006250,-0.06771017,8.74000000,0.24000000,0.06000000
617,0,0.00300000,0.14700000,0.98700000,0.12000000,-0.09000000,0.08000000,0.10576104,0.10997262,-0.06763028,8.73000000,0.24000000,0.06000000
618,0,0.00200000,0.14800000,0.98900000,0.26000000,0.16000000,0.05000000,0.10601869,0.11013118,-0.06758073,8.73000000,0.24000000,0.06000000
619,0,0.00300000,0.14200000,0.99100000,-0.03000000,0.02000000,-0.04000000,0.10598908,0.11015092,-0.06762022,8.73000000,0.24000000,0.06000000
620,0,0.00300000,0.14700000,0.98700000,0.05000000,0.13000000,0.13000000,0.10603854,0.11027953,-0.06749161,8.73000000,0.24000000,0.06000000
621,0,0.00300000,0.14500000,0.98800000,0.14000000,0.05000000,-0.15000000,0.11381414,0.11305653,-0.07582260,8.73000000,0.23000000,0.06000000
622,0,-0.00300000,0.14000000,0.98700000,0.19000000,-0.13000000,-0.16000000,0.11401800,0.11291704,-0.07599428,8.73000000,0.23000000,0.06000000
623,0,0.00200000,0.14300000,0.99100000,-0.28000000,-0.12000000,-0.06000000,0.11373766,0.11279689,-0.07605435,8.73000000,0.23000000,0.06000000
624,0,-0.00200000,0.14500000,0.98900000,0.13000000,-0.03000000,-0.01000000,0.11386751,0.11276693,-0.07606434,8.73000000,0.23000000,0.06000000
625,0,-0.00100000,0.14600000,0.99000000,0.05000000,0.04000000,-0.04000000,0.11391714,0.11280663,-0.07610405,8.72000000,0.23000000,0.06000000
626,0,0.00400000,0.14400000,0.98600000,0.07000000,-0.01000000,0.07000000,0.11398706,0.11279664,-0.07603413,8.72000000,0.23000000,0.06000000
627,0,-0.00300000,0.14600000,0.98800000,0.20000000,-0.03000000,0.06000000,0.12508518,0.11113193,-0.07270469,8.72000000,0.23000000,0.06000000
628,0,-0.00000000,0.14500000,0.98700000,0.02000000,0.01000000,0.29000000,0.12510630,0.11114249,-0.07239843,8.72000000,0.23000000,0.06000000
629,0,0.00100000,0.14500000,0.99100000,0.08000000,-0.01000000,-0.09000000,0.12518596,0.11113253,-0.07248805,8.72000000,0.23000000,0.06000000
630,0,0.00000000,0.14400000,0.98800000,0.03000000,0.21000000,-0.22000000,0.12521563,0.11134018,-0.07270559,8.72000000,0.23000000,0.06000000
631,0,0.00200000,0.14200000,0.98900000,0.05000000,0.12000000,0.02000000,0.12526496,0.11145858,-0.07268586,8.72000000,0.23000000,0.06000000
632,0,0.00100000,0.14800000,0.98900000,-0.24000000,-0.18000000,-0.01000000,0.12502753,0.11128051,-0.07269575,8.71000000,0.23000000,0.06000000
633,0,-0.00200000,0.15000000,0.98800000,-0.13000000,0.05000000,0.24000000,0.11767570,0.11410814,-0.05912315,8.71000000,0.23000000,0.06000000
634,0,-0.00100000,0.14400000,0.98700000,0.18000000,-0.06000000,-0.12000000,0.11786575,0.11404479,-0.05924985,8.71000000,0.23000000,0.06000000
635,0,-0.00000000,0.14300000,0.99100000,0.06000000,-0.03000000,-0.03000000,0.11792631,0.11401451,-0.05928013,8.71000000,0.22000000,0.06000000
636,0,-0.00200000,0.14600000,0.98600000,-0.07000000,0.21000000,-0.25000000,0.11785606,0.11422526,-0.05953103,8.71000000,0.22000000,0.06000000
637,0,-0.00800000,0.14300000,0.98900000,0.02000000,-0.11000000,-0.00000000,0.11787626,0.11411416,-0.05953103,8.70000000,0.22000000,0.06000000
638,0,-0.00300000,0.14400000,0.99200000,0.04000000,-0.06000000,0.02000000,0.11791672,0.11405347,-0.05951080,8.70000000,0.22000000,0.06000000
639,0,-0.00600000,0.14800000,0.98800000,0.04000000,0.20000000,-0.16000000,0.12013510,0.12514539,-0.06838433,8.70000000,0.22000000,0.06000000
640,0,-0.00000000,0.14800000,0.99200000,0.06000000,-0.02000000,0.04000000,0.12019819,0.12512436,-0.06834227,8.70000000,0.22000000,0.06000000
641,0,-0.00100000,0.14500000,0.99200000,0.14000000,0.02000000,-0.20000000,0.12033739,0.12514425,-0.06854114,8.69000000,0.22000000,0.06000000
642,0,-0.00200000,0.14400000,0.99300000,-0.12000000,0.03000000,0.20000000,0.12021716,0.12517430,-0.06834075,8.69000000,0.22000000,0.06000000
643,0,-0.00400000,0.14500000,0.99000000,-0.12000000,0.13000000,-0.10000000,0.12009078,0.12531122,-0.06844607,8.69000000,0.22000000,0.06000000
644,0,-0.00200000,0.14500000,0.98800000,0.25000000,-0.06000000,-0.06000000,0.12034788,0.12524952,-0.06850777,8.69000000,0.22000000,0.06000000
645,0,-0.00200000,0.14200000,0.98900000,-0.08000000,0.16000000,-0.28000000,0.11567303,0.13459920,-0.08486972,8.69000000,0.22000000,0.06000000
646,0,-0.00600000,0.14400000,0.99100000,-0.15000000,-0.01000000,0.13000000,0.11551362,0.13458858,-0.08473157,8.68000000,0.22000000,0.06000000
647,0,0.00200000,0.14600000,0.98800000,0.04000000,-0.21000000,-0.15000000,0.11555381,0.13437762,-0.08488225,8.68000000,0.21000000,0.06000000
648,0,-0.00300000,0.14700000,0.98900000,0.04000000,0.04000000,-0.12000000,0.11559550,0.13441931,-0.08500732,8.68000000,0.21000000,0.06000000
649,0,-0.00400000,0.15000000,0.99300000,0.06000000,0.07000000,0.10000000,0.11565558,0.13448941,-0.08490717,8.68000000,0.21000000,0.06000000
650,0,-0.00100000,0.14500000,0.98700000,0.15000000,0.04000000,0.15000000,0.11580570,0.13452944,-0.08475706,8.68000000,0.22000000,0.06000000
651,0,-0.00100000,0.14800000,0.98900000,-0.15000000,0.12000000,-0.07000000,0.11565458,0.13465033,-0.08482758,8.68000000,0.21000000,0.06000000
652,0,-0.00400000,0.14500000,0.98900000,0.22000000,0.13000000,0.01000000,0.12806582,0.14198424,-0.08426343,8.67000000,0.21000000,0.06000000
653,0,-0.00300000,0.14400000,0.98700000,0.08000000,0.04000000,-0.26000000,0.12815234,0.14202750,-0.08454464,8.67000000,0.21000000,0.06000000
654,0,0.00200000,0.14200000,0.99100000,-0.06000000,-0.04000000,0.05000000,0.12809214,0.14198737,-0.08449447,8.67000000,0.21000000,0.06000000
655,0,0.00000000,0.13900000,0.99200000,0.17000000,0.07000000,0.11000000,0.12826186,0.14205726,-0.08438465,8.67000000,0.21000000,0.06000000
656,0,-0.00500000,0.14100000,0.99300000,-0.09000000,0.46000000,0.12000000,0.12817040,0.14252473,-0.08426271,8.67000000,0.21000000,0.06000000
657,0,0.00100000,0.14500000,0.98800000,0.03000000,0.11000000,-0.06000000,0.12820823,0.14266342,-0.08433836,8.66000000,0.21000000,0.06000000
658,0,-0.00400000,0.14300000,0.99200000,0.10000000,0.02000000,-0.09000000,0.13372617,0.14376701,-0.08930451,8.66000000,0.21000000,0.06000000
659,0,-0.00400000,0.14100000,0.99000000,-0.08000000,0.08000000,-0.05000000,0.13364247,0.14385071,-0.08935682,8.66000000,0.21000000,0.06000000
660,0,-0.00200000,0.13900000,0.99200000,0.31000000,0.18000000,-0.01000000,0.13395300,0.14403102,-0.08936684,8.66000000,0.21000000,0.06000000
661,0,-0.00200000,0.14400000,0.98900000,-0.03000000,0.21000000,0.34000000,0.13392310,0.14424032,-0.08902796,8.66000000,0.21000000,0.06000000
662,0,-0.00000000,0.14500000,0.98800000,0.01000000,0.11000000,0.01000000,0.13393488,0.14437000,-0.08901618,8.65000000,0.21000000,0.06000000
663,0,-0.00700000,0.14100000,0.99000000,-0.06000000,0.09000000,0.26000000,0.13387380,0.14446163,-0.08875146,8.65000000,0.21000000,0.06000000
664,0,-0.00400000,0.14200000,0.99000000,-0.25000000,0.08000000,-0.06000000,0.12003643,0.14888959,-0.09207242,8.65000000,0.21000000,0.06000000
665,0,0.00500000,0.14200000,0.98900000,0.03000000,-0.00000000,-0.09000000,0.12006824,0.14888959,-0.09216786,8.65000000,0.21000000,0.06000000
666,0,-0.00400000,0.14300000,0.99100000,0.02000000,-0.03000000,0.12000000,0.12008831,0.14885949,-0.09204745,8.65000000,0.20000000,0.06000000
667,0,0.00200000,0.14700000,0.98900000,-0.03000000,-0.05000000,0.09000000,0.12005858,0.14880994,-0.09195826,8.65000000,0.20000000,0.06000000
668,0,0.00300000,0.14300000,0.98900000,0.04000000,-0.09000000,0.23000000,0.12009902,0.14871895,-0.09172573,8.65000000,0.20000000,0.06000000
669,0,0.00100000,0.14300000,0.99400000,0.30000000,0.23000000,-0.00000000,0.12039975,0.14894950,-0.09172573,8.65000000,0.20000000,0.06000000
670,0,-0.00100000,0.14200000,0.99100000,-0.02000000,0.04000000,0.26000000,0.11928557,0.15117785,-0.07724146,8.65000000,0.20000000,0.06000000
671,0,0.00300000,0.14700000,0.98700000,0.02000000,0.08000000,-0.00000000,0.11930671,0.15126241,-0.07724146,8.65000000,0.20000000,0.06000000
672,0,-0.00000000,0.14100000,0.98800000,0.04000000,-0.06000000,-0.02000000,0.11934680,0.15120228,-0.07726150,8.64000000,0.20000000,0.06000000
673,0,0.00500000,0.14000000,0.98600000,-0.09000000,0.15000000,0.24000000,0.11925720,0.15135161,-0.07702258,8.64000000,0.20000000,0.06000000
674,0,0.00200000,0.14200000,0.99200000,0.05000000,0.30000000,-0.08000000,0.11930750,0.15165341,-0.07710306,8.64000000,0.20000000,0.06000000
675,0,-0.00400000,0.14400000,0.99100000,0.01000000,-0.11000000,-0.11000000,0.11931752,0.15154322,-0.07721325,8.64000000,0.20000000,0.06000000
676,0,-0.00200000,0.14600000,0.98600000,0.04000000,0.08000000,-0.08000000,0.12156837,0.15604491,-0.08171494,8.64000000,0.20000000,0.06000000
677,0,-0.00300000,0.14600000,0.98800000,0.13000000,-0.02000000,0.04000000,0.12171222,0.15602278,-0.08167068,8.64000000,0.20000000,0.06000000
678,0,-0.00000000,0.14600000,0.98900000,-0.07000000,-0.16000000,0.15000000,0.12164149,0.15586110,-0.08151910,8.64000000,0.20000000,0.06000000
679,0,-0.00500000,0.14500000,0.98800000,0.01000000,-0.03000000,-0.11000000,0.12165162,0.15583069,-0.08163060,8.64000000,0.20000000,0.06000000
680,0,0.00100000,0.14100000,0.98500000,0.00000000,-0.12000000,0.10000000,0.12165162,0.15571080,-0.08153069,8.64000000,0.20000000,0.06000000
681,0,-0.00200000,0.14600000,0.98900000,0.08000000,0.16000000,0.18000000,0.12173266,0.15587286,-0.08134837,8.63000000,0.20000000,0.06000000
682,0,-0.00200000,0.14300000,0.99300000,-0.05000000,-0.14000000,-0.11000000,0.11896182,0.14811453,-0.08744420,8.63000000,0.20000000,0.06000000
683,0,-0.00400000,0.14400000,0.99300000,0.25000000,0.14000000,0.15000000,0.11922548,0.14826218,-0.08728601,8.63000000,0.20000000,0.07000000
684,0,-0.00600000,0.14800000,0.98900000,0.03000000,0.31000000,-0.21000000,0.11925566,0.14857403,-0.08749727,8.63000000,0.20000000,0.07000000
685,0,0.00300000,0.14300000,0.99000000,-0.13000000,0.14000000,-0.16000000,0.11912361,0.14871624,-0.08765979,8.63000000,0.20000000,0.07000000
686,0,-0.00400000,0.14000000,0.99100000,-0.04000000,0.05000000,-0.07000000,0.11908351,0.14876636,-0.08772996,8.63000000,0.20000000,0.06000000
687,0,-0.00200000,0.13900000,0.99000000,-0.02000000,0.10000000,0.10000000,0.11906348,0.14886651,-0.08762981,8.63000000,0.20000000,0.06000000
688,0,-0.00100000,0.14400000,0.99100000,0.21000000,-0.09000000,0.11000000,0.13093220,0.14377991,-0.08141287,8.63000000,0.20000000,0.06000000
689,0,-0.00600000,0.14800000,0.98800000,0.06000000,0.51000000,0.02000000,0.13099554,0.14431826,-0.08139175,8.62000000,0.20000000,0.07000000
690,0,-0.00300000,0.15100000,0.98700000,0.11000000,0.10000000,-0.06000000,0.13110861,0.14442105,-0.08145343,8.62000000,0.20000000,0.07000000
691,0,-0.00000000,0.14500000,0.98800000,-0.11000000,-0.02000000,0.19000000,0.13099777,0.14440090,-0.08126197,8.62000000,0.20000000,0.07000000
692,0,0.00000000,0.14200000,0.99200000,0.36000000,0.03000000,-0.09000000,0.13135743,0.14443087,-0.08135189,8.62000000,0.20000000,0.06000000
693,0,0.00400000,0.14400000,0.99100000,0.23000000,-0.10000000,-0.04000000,0.13159002,0.14432975,-0.08139234,8.62000000,0.20000000,0.07000000
694,0,0.00200000,0.13900000,0.98800000,-0.07000000,-0.21000000,-0.10000000,0.12771133,0.13269370,-0.08693332,8.62000000,0.19000000,0.07000000
695,0,-0.00100000,0.14300000,0.98500000,0.10000000,-0.15000000,0.21000000,0.12781696,0.13253525,-0.08671150,8.62000000,0.19000000,0.07000000
696,0,0.00200000,0.14200000,0.98600000,0.15000000,0.17000000,0.06000000,0.12796879,0.13270732,-0.08665076,8.62000000,0.19000000,0.07000000
697,0,0.00100000,0.14500000,0.98800000,-0.03000000,0.11000000,-0.08000000,0.12793891,0.13281691,-0.08673046,8.61000000,0.19000000,0.07000000
698,0,-0.00300000,0.14700000,0.99100000,-0.30000000,0.04000000,0.02000000,0.12764033,0.13285672,-0.08671056,8.61000000,0.19000000,0.07000000
699,0,-0.00200000,0.14200000,0.99200000,0.06000000,-0.01000000,-0.02000000,0.12770036,0.13284671,-0.08673057,8.61000000,0.19000000,0.07000000
700,0,-0.00100000,0.14600000,0.99200000,0.29000000,0.26000000,-0.05000000,0.14380888,0.14728884,-0.08950790,8.61000000,0.19000000,0.07000000
701,0,-0.01000000,0.14700000,0.98500000,-0.15000000,0.13000000,-0.07000000,0.14365090,0.14742575,-0.08958162,8.61000000,0.19000000,0.07000000
702,0,-0.00400000,0.14300000,0.99000000,0.23000000,-0.04000000,0.09000000,0.14388403,0.14738521,-0.08949040,8.61000000,0.19000000,0.07000000
703,0,0.00400000,0.14400000,0.99100000,0.17000000,-0.02000000,0.09000000,0.14405396,0.14736522,-0.08940044,8.61000000,0.19000000,0.07000000
704,0,-0.00500000,0.13900000,0.98900000,0.12000000,-0.17000000,0.16000000,0.14417356,0.14719578,-0.08924097,8.61000000,0.19000000,0.07000000
705,0,-0.00200000,0.14400000,0.99000000,-0.13000000,0.03000000,0.17000000,0.14404368,0.14722575,-0.08907112,8.61000000,0.19000000,0.07000000
706,0,-0.00400000,0.14800000,0.98700000,0.14000000,0.08000000,-0.13000000,0.15194561,0.15174114,-0.09640863,8.61000000,0.19000000,0.07000000
707,0,0.00200000,0.14700000,0.99500000,0.14000000,0.16000000,0.20000000,0.15209443,0.15191121,-0.09619604,8.61000000,0.19000000,0.07000000
708,0,-0.00300000,0.14200000,0.98700000,0.07000000,0.26000000,0.18000000,0.15216523,0.15217420,-0.09601397,8.61000000,0.19000000,0.07000000
709,0,-0.00400000,0.14700000,0.98900000,0.09000000,-0.10000000,0.00000000,0.15225485,0.15207462,-0.09601397,8.61000000,0.19000000,0.07000000
710,0,0.00500000,0.14300000,0.98700000,0.05000000,0.15000000,-0.20000000,0.15230467,0.15222409,-0.09621326,8.61000000,0.19000000,0.07000000
711,0,0.00000000,0.14000000,0.98800000,0.13000000,-0.07000000,-0.02000000,0.15243526,0.15215377,-0.09623335,8.60000000,0.19000000,0.07000000
712,0,0.00100000,0.14300000,0.99400000,-0.23000000,0.15000000,-0.16000000,0.13966760,0.16048051,-0.10511520,8.60000000,0.19000000,0.07000000
713,0,0.00300000,0.14100000,0.99100000,-0.14000000,-0.13000000,0.19000000,0.13951728,0.16034093,-0.10491120,8.60000000,0.18000000,0.07000000
714,0,-0.00400000,0.14400000,0.98500000,-0.14000000,-0.06000000,0.13000000,0.13937571,0.16028025,-0.10477974,8.60000000,0.18000000,0.07000000
715,0,-0.00100000,0.14500000,0.98300000,0.02000000,0.11000000,0.07000000,0.13939588,0.16039123,-0.10470912,8.60000000,0.18000000,0.07000000
716,0,0.00300000,0.13800000,0.99200000,-0.26000000,0.18000000,-0.02000000,0.13913643,0.16057085,-0.10472908,8.60000000,0.18000000,0.07000000
717,0,0.00100000,0.14300000,0.98400000,0.01000000,-0.31000000,0.05000000,0.13914652,0.16025825,-0.10467866,8.60000000,0.18000000,0.07000000
718,0,-0.00400000,0.15100000,0.99200000,0.25000000,0.12000000,0.01000000,0.15305696,0.16693526,-0.10412224,8.60000000,0.18000000,0.07000000
719,0,0.00200000,0.14000000,0.98900000,0.12000000,0.07000000,-0.22000000,0.15318923,0.16701242,-0.10436475,8.60000000,0.18000000,0.07000000
720,0,-0.00300000,0.14300000,0.98700000,-0.05000000,-0.15000000,-0.19000000,0.15313822,0.16685938,-0.10455861,8.59000000,0.18000000,0.07000000
721,0,-0.00200000,0.14000000,0.98800000,0.10000000,-0.31000000,-0.17000000,0.15323841,0.16654878,-0.10472894,8.59000000,0.18000000,0.07000000
722,0,0.00300000,0.14300000,0.98900000,-0.04000000,0.13000000,-0.13000000,0.15319862,0.16667810,-0.10485826,8.59000000,0.18000000,0.07000000
723,0,-0.00500000,0.13900000,0.99100000,0.23000000,-0.18000000,0.05000000,0.15343022,0.16649685,-0.10480791,8.59000000,0.18000000,0.07000000
724,0,0.00200000,0.14000000,0.98900000,-0.02000000,-0.04000000,-0.17000000,0.15230535,0.16424711,-0.11436931,8.58000000,0.18000000,0.07000000
725,0,-0.00400000,0.14000000,0.99300000,-0.03000000,0.13000000,-0.02000000,0.15227388,0.16438347,-0.11439029,8.58000000,0.18000000,0.07000000
726,0,-0.00200000,0.14000000,0.98700000,0.13000000,0.26000000,-0.25000000,0.15240469,0.16464509,-0.11464185,8.58000000,0.18000000,0.07000000
727,0,0.00200000,0.14200000,0.99300000,-0.05000000,-0.20000000,0.02000000,0.15235477,0.16444541,-0.11462188,8.58000000,0.17000000,0.07000000
728,0,-0.00600000,0.14500000,0.98800000,-0.09000000,-0.16000000,-0.05000000,0.15226432,0.16428461,-0.11467213,8.57000000,0.17000000,0.07000000
729,0,-0.00100000,0.14300000,0.98300000,0.02000000,-0.01000000,0.12000000,0.15228435,0.16427459,-0.11455193,8.57000000,0.18000000,0.07000000
730,0,0.00200000,0.13600000,0.98500000,0.27000000,0.27000000,-0.17000000,0.16835601,0.18034624,-0.12467111,8.57000000,0.17000000,0.07000000
731,0,0.00400000,0.14400000,0.99000000,-0.03000000,0.13000000,0.09000000,0.16832287,0.18048982,-0.12457171,8.57000000,0.17000000,0.07000000
732,0,-0.00100000,0.14400000,0.99100000,-0.26000000,0.07000000,-0.13000000,0.16805214,0.18056271,-0.12470708,8.57000000,0.17000000,0.07000000
733,0,-0.00100000,0.14400000,0.99400000,0.08000000,-0.09000000,0.01000000,0.16813540,0.18046904,-0.12469667,8.57000000,0.17000000,0.07000000
734,0,0.00000000,0.14600000,0.99300000,-0.11000000,-0.15000000,0.08000000,0.16801512,0.18030502,-0.12460919,8.57000000,0.17000000,0.07000000
735,0,0.00100000,0.14200000,0.99100000,-0.01000000,0.00000000,0.34000000,0.16798789,0.18030502,-0.12368326,8.57000000,0.17000000,0.07000000
736,0,0.00100000,0.14300000,0.98700000,0.12000000,0.13000000,0.38000000,0.17445041,0.18730608,-0.10321862,8.57000000,0.17000000,0.07000000
737,0,0.00100000,0.14700000,0.99000000,0.26000000,-0.08000000,-0.06000000,0.17487772,0.18717460,-0.10331723,8.57000000,0.17000000,0.07000000
738,0,-0.00100000,0.14200000,0.99200000,0.13000000,-0.22000000,-0.11000000,0.17556364,0.18601381,-0.10389762,8.57000000,0.17000000,0.07000000
739,0,0.00200000,0.14700000,0.99000000,0.06000000,-0.01000000,0.06000000,0.17566021,0.18599772,-0.10380106,8.57000000,0.17000000,0.07000000
740,0,-0.00100000,0.14400000,0.98800000,-0.02000000,0.10000000,-0.01000000,0.17562920,0.18615275,-0.10381656,8.57000000,0.17000000,0.07000000
741,0,-0.00500000,0.13900000,0.98900000,-0.17000000,-0.07000000,-0.35000000,0.17433004,0.18561780,-0.10649131,8.56000000,0.17000000,0.07000000
742,0,0.00000000,0.14000000,0.98800000,-0.10000000,-0.16000000,0.01000000,0.17036563,0.17927474,-0.10609487,8.56000000,0.16000000,0.07000000
743,0,0.00300000,0.14300000,0.99000000,0.01000000,0.11000000,0.18000000,0.17037721,0.17940211,-0.10588645,8.56000000,0.16000000,0.07000000
744,0,0.00200000,0.14200000,0.99100000,0.05000000,0.14000000,-0.15000000,0.17043068,0.17955182,-0.10604686,8.56000000,0.16000000,0.07000000
745,0,-0.00200000,0.14100000,0.99600000,-0.15000000,0.01000000,0.12000000,0.17027635,0.17956211,-0.10592340,8.55000000,0.16000000,0.07000000
746,0,-0.00200000,0.14200000,0.99100000,-0.19000000,0.15000000,0.16000000,0.17008675,0.17971179,-0.10576374,8.55000000,0.16000000,0.07000000
747,0,-0.00100000,0.14200000,0.99000000,0.12000000,-0.40000000,0.07000000,0.17020930,0.17930329,-0.10569225,8.55000000,0.16000000,0.07000000
748,0,0.00200000,0.14200000,0.98800000,-0.02000000,-0.26000000,0.13000000,0.16910614,0.16496228,-0.09852174,8.55000000,0.16000000,0.07000000
749,0,-0.00300000,0.13900000,0.98800000,0.07000000,0.22000000,0.11000000,0.16917988,0.16519403,-0.09840586,8.55000000,0.16000000,0.07000000
750,0,0.00600000,0.14500000,0.99000000,0.36000000,0.26000000,-0.03000000,0.16954101,0.16545485,-0.09843595,8.55000000,0.16000000,0.07000000
751,0,-0.00300000,0.14400000,0.99000000,0.24000000,0.18000000,-0.17000000,0.16978245,0.16563592,-0.09860697,8.55000000,0.16000000,0.07000000
752,0,-0.00100000,0.14300000,0.98900000,0.06000000,0.16000000,-0.07000000,0.16984225,0.16579539,-0.09867674,8.55000000,0.16000000,0.07000000
753,0,-0.00200000,0.14000000,0.99500000,-0.17000000,0.30000000,0.08000000,0.16967245,0.16609505,-0.09859683,8.55000000,0.16000000,0.07000000
754,0,-0.00300000,0.14600000,0.99400000,-0.06000000,-0.04000000,0.01000000,0.16633388,0.16386934,-0.09804041,8.55000000,0.16000000,0.07000000
755,0,0.00200000,0.14300000,0.99000000,0.22000000,-0.14000000,-0.13000000,0.16656522,0.16372212,-0.09817711,8.55000000,0.16000000,0.07000000
756,0,-0.00500000,0.14300000,0.99100000,0.10000000,0.07000000,0.01000000,0.16666558,0.16379238,-0.09816707,8.54000000,0.16000000,0.07000000
757,0,0.00300000,0.14200000,0.98900000,-0.09000000,-0.34000000,-0.08000000,0.16657468,0.16344896,-0.09824787,8.54000000,0.15000000,0.07000000
758,0,-0.00400000,0.14700000,0.99200000,-0.03000000,-0.26000000,0.06000000,0.16654475,0.16318964,-0.09818803,8.54000000,0.15000000,0.07000000
759,0,-0.00000000,0.14700000,0.98700000,0.09000000,-0.03000000,-0.08000000,0.16663448,0.16315973,-0.09826778,8.54000000,0.15000000,0.07000000
760,0,0.00400000,0.14300000,0.99400000,0.02000000,-0.05000000,-0.05000000,0.16776147,0.16034226,-0.10108525,8.54000000,0.15000000,0.07000000
761,0,0.00300000,0.14000000,0.98900000,0.09000000,0.12000000,-0.16000000,0.16785643,0.16046887,-0.10125407,8.54000000,0.15000000,0.07000000
762,0,0.00000000,0.14300000,0.99300000,-0.14000000,0.07000000,-0.36000000,0.16770691,0.16054363,-0.10163854,8.53000000,0.15000000,0.07000000
763,0,0.00100000,0.14300000,0.98900000,0.25000000,0.02000000,-0.05000000,0.16795936,0.16056383,-0.10168903,8.53000000,0.15000000,0.07000000
764,0,0.00400000,0.14300000,0.99000000,-0.18000000,0.06000000,-0.13000000,0.16777918,0.16062388,-0.10181916,8.53000000,0.15000000,0.07000000
765,0,-0.00100000,0.13800000,0.99100000,-0.14000000,0.25000000,0.04000000,0.16763981,0.16087276,-0.10177934,8.53000000,0.15000000,0.07000000
766,0,0.00100000,0.14300000,0.99100000,-0.13000000,-0.01000000,0.15000000,0.16042631,0.16031788,-0.09345607,8.52000000,0.15000000,0.07000000
767,0,0.00400000,0.14300000,0.99100000,0.12000000,0.13000000,-0.10000000,0.16056191,0.16046477,-0.09356907,8.52000000,0.15000000,0.07000000
768,0,0.00400000,0.14000000,0.98800000,-0.16000000,-0.22000000,0.15000000,0.16039347,0.16023317,-0.09341116,8.52000000,0.15000000,0.07000000
769,0,-0.00100000,0.13900000,0.99000000,0.07000000,-0.01000000,-0.08000000,0.16046396,0.16022310,-0.09349172,8.52000000,0.14000000,0.07000000
770,0,0.00100000,0.14100000,0.99200000,0.09000000,0.01000000,0.09000000,0.16055349,0.16023305,-0.09340219,8.52000000,0.14000000,0.07000000
771,0,-0.00100000,0.14300000,0.98800000,0.31000000,-0.01000000,0.32000000,0.16086335,0.16022306,-0.09308233,8.52000000,0.14000000,0.07000000
772,0,0.00400000,0.13900000,0.99000000,0.23000000,0.22000000,0.04000000,0.17427600,0.17305254,-0.09074969,8.52000000,0.14000000,0.07000000
773,0,-0.00400000,0.13400000,0.98900000,0.00000000,-0.07000000,-0.27000000,0.17427600,0.17297688,-0.09104152,8.52000000,0.14000000,0.07000000
774,0,-0.00200000,0.14300000,0.98700000,0.17000000,0.11000000,-0.06000000,0.17444698,0.17308752,-0.09110187,8.51000000,0.14000000,0.07000000
775,0,-0.00400000,0.14500000,0.99400000,0.24000000,0.17000000,-0.13000000,0.17468578,0.17325667,-0.09123122,8.51000000,0.14000000,0.07000000
776,0,-0.00200000,0.14000000,0.98900000,0.05000000,-0.02000000,-0.06000000,0.17473598,0.17323659,-0.09129145,8.51000000,0.14000000,0.07000000
777,0,0.00300000,0.14300000,0.99200000,-0.18000000,-0.01000000,0.17000000,0.17455661,0.17322663,-0.09112206,8.51000000,0.14000000,0.07000000
778,0,0.00400000,0.14300000,0.98800000,0.23000000,-0.04000000,-0.05000000,0.17478689,0.17318658,-0.09117212,8.51000000,0.14000000,0.07000000
779,0,-0.00200000,0.14100000,0.99300000,0.21000000,0.10000000,0.17000000,0.18664009,0.17883096,-0.08157667,8.51000000,0.13000000,0.07000000
780,0,-0.00300000,0.14100000,0.99000000,-0.06000000,0.22000000,0.28000000,0.18657043,0.17908637,-0.08125160,8.50000000,0.13000000,0.07000000
781,0,-0.00300000,0.14400000,0.98900000,-0.05000000,-0.06000000,-0.05000000,0.18651969,0.17902548,-0.08130234,8.50000000,0.14000000,0.07000000
782,0,-0.00100000,0.14400000,0.99400000,-0.09000000,-0.00000000,-0.01000000,0.18643016,0.17902548,-0.08131229,8.50000000,0.13000000,0.07000000
783,0,0.00300000,0.14200000,0.98600000,-0.09000000,-0.14000000,-0.11000000,0.18634057,0.17888611,-0.08142180,8.50000000,0.13000000,0.07000000
784,0,-0.00400000,0.14300000,0.98900000,-0.16000000,0.12000000,0.07000000,0.18618030,0.17900632,-0.08135168,8.49000000,0.13000000,0.07000000
785,0,0.00100000,0.13800000,0.99000000,0.12000000,0.02000000,0.22000000,0.19283559,0.18011553,-0.06915030,8.49000000,0.13000000,0.07000000
786,0,-0.00200000,0.14100000,0.99100000,-0.17000000,-0.03000000,0.14000000,0.19265553,0.18008376,-0.06900202,8.49000000,0.13000000,0.07000000
787,0,0.00500000,0.14200000,0.98800000,0.03000000,0.23000000,0.11000000,0.19268586,0.18031623,-0.06889084,8.49000000,0.13000000,0.07000000
788,0,-0.00100000,0.14200000,0.98600000,0.14000000,-0.18000000,0.19000000,0.19282626,0.18013571,-0.06870029,8.49000000,0.13000000,0.07000000
789,0,-0.00200000,0.13900000,0.99100000,-0.00000000,-0.08000000,0.19000000,0.19282626,0.18005581,-0.06851051,8.49000000,0.13000000,0.07000000
790,0,0.00400000,0.14400000,0.98400000,-0.09000000,-0.07000000,0.23000000,0.19273617,0.17998574,-0.06828028,8.49000000,0.13000000,0.07000000
791,0,0.00500000,0.14200000,0.98600000,-0.10000000,-0.14000000,0.05000000,0.18717929,0.17220610,-0.06550184,8.49000000,0.13000000,0.08000000
792,0,-0.00500000,0.13900000,0.98700000,-0.06000000,0.20000000,0.07000000,0.18711643,0.17241565,-0.06542850,8.49000000,0.13000000,0.08000000
793,0,-0.00400000,0.14500000,0.99200000,-0.05000000,-0.06000000,0.36000000,0.18706548,0.17235450,-0.06506163,8.49000000,0.13000000,0.08000000
794,0,0.00300000,0.14200000,0.98400000,-0.30000000,0.10000000,-0.27000000,0.18676661,0.17245412,-0.06533060,8.49000000,0.13000000,0.07000000
795,0,0.00200000,0.13800000,0.99100000,-0.03000000,0.08000000,0.00000000,0.18673690,0.17253334,-0.06533060,8.48000000,0.13000000,0.08000000
796,0,-0.00100000,0.14500000,0.98600000,0.13000000,0.14000000,-0.09000000,0.18686632,0.17267271,-0.06542020,8.48000000,0.13000000,0.07000000
797,0,0.00400000,0.14000000,0.99100000,-0.06000000,0.13000000,0.17000000,0.18348377,0.18000157,-0.05583631,8.48000000,0.13000000,0.07000000
798,0,-0.00000000,0.13900000,0.98600000,-0.00000000,-0.11000000,-0.09000000,0.18348377,0.17988520,-0.05593152,8.48000000,0.13000000,0.08000000
799,0,-0.00400000,0.14300000,0.98300000,0.06000000,-0.13000000,0.01000000,0.18354913,0.17974357,-0.05592063,8.48000000,0.13000000,0.08000000
800,0,-0.00500000,0.13900000,0.99400000,0.07000000,-0.12000000,0.06000000,0.18361907,0.17962368,-0.05586068,8.47000000,0.13000000,0.08000000
801,0,-0.00100000,0.14500000,0.99200000,0.03000000,0.15000000,-0.14000000,0.18364899,0.17977329,-0.05600032,8.47000000,0.13000000,0.08000000
802,0,-0.00100000,0.14000000,0.98900000,0.07000000,0.24000000,-0.09000000,0.18372226,0.18002451,-0.05609453,8.47000000,0.13000000,0.08000000
803,0,0.00100000,0.14200000,0.99000000,0.04000000,-0.04000000,0.08000000,0.18593753,0.17780925,-0.05166400,8.47000000,0.13000000,0.08000000
804,0,-0.00100000,0.14300000,0.99200000,0.23000000,-0.18000000,-0.18000000,0.18618580,0.17761495,-0.05185829,8.47000000,0.13000000,0.08000000
805,0,0.00300000,0.14100000,0.98900000,0.27000000,-0.05000000,0.30000000,0.18645954,0.17756426,-0.05155414,8.47000000,0.13000000,0.08000000
806,0,0.00300000,0.14100000,0.98700000,0.12000000,0.10000000,0.14000000,0.18657957,0.17766429,-0.05141410,8.47000000,0.13000000,0.08000000
807,0,-0.00300000,0.13900000,0.99400000,-0.21000000,0.34000000,0.03000000,0.18636916,0.17800495,-0.05138404,8.46000000,0.13000000,0.08000000
808,0,-0.00200000,0.14300000,0.98800000,0.07000000,-0.23000000,0.07000000,0.18643982,0.17777280,-0.05131339,8.46000000,0.13000000,0.08000000
809,0,0.00500000,0.14900000,0.99400000,0.25000000,0.02000000,0.02000000,0.20033768,0.17888463,-0.05020156,8.46000000,0.12000000,0.08000000
810,0,-0.00200000,0.14300000,0.98900000,-0.02000000,0.28000000,0.06000000,0.20031616,0.17918587,-0.05013701,8.46000000,0.12000000,0.08000000
811,0,0.00000000,0.14100000,0.99300000,0.08000000,-0.20000000,-0.02000000,0.20039733,0.17898295,-0.05015730,8.46000000,0.12000000,0.08000000
812,0,-0.00200000,0.14300000,0.98700000,0.09000000,0.02000000,-0.11000000,0.20048750,0.17900299,-0.05026751,8.46000000,0.12000000,0.08000000
813,0,-0.00200000,0.14200000,0.99000000,-0.00000000,-0.01000000,0.13000000,0.20048750,0.17899287,-0.05013593,8.46000000,0.12000000,0.08000000
814,0,0.00700000,0.14200000,0.98800000,0.07000000,0.05000000,-0.09000000,0.20055867,0.17904370,-0.05022743,8.45000000,0.12000000,0.08000000
815,0,0.00100000,0.14100000,0.99100000,-0.24000000,-0.27000000,-0.19000000,0.18698487,0.16377317,-0.06097336,8.45000000,0.12000000,0.08000000
816,0,0.00700000,0.13800000,0.98600000,0.20000000,-0.22000000,0.06000000,0.18727175,0.16345760,-0.06088730,8.45000000,0.12000000,0.08000000
817,0,0.00300000,0.14100000,0.98700000,-0.13000000,0.19000000,0.01000000,0.18709331,0.16371841,-0.06087357,8.45000000,0.12000000,0.08000000
818,0,-0.00400000,0.14200000,0.99200000,-0.00000000,0.04000000,0.01000000,0.18709331,0.16377362,-0.06085977,8.45000000,0.12000000,0.08000000
819,0,-0.00100000,0.14300000,0.99200000,-0.04000000,0.25000000,0.09000000,0.18703841,0.16411673,-0.06073625,8.44000000,0.12000000,0.08000000
820,0,-0.00100000,0.14100000,0.99200000,0.33000000,-0.17000000,0.01000000,0.18755898,0.16384856,-0.06072047,8.44000000,0.12000000,0.08000000
821,0,0.00400000,0.13500000,0.98800000,-0.19000000,-0.01000000,0.05000000,0.17738985,0.16331334,-0.05804438,8.44000000,0.12000000,0.08000000
822,0,0.00300000,0.13800000,0.99100000,0.24000000,0.17000000,0.20000000,0.17787710,0.16365848,-0.05763834,8.44000000,0.12000000,0.08000000
823,0,-0.00200000,0.13600000,0.99200000,-0.02000000,-0.01000000,0.18000000,0.17784317,0.16364151,-0.05733289,8.44000000,0.12000000,0.08000000
824,0,-0.00200000,0.14500000,0.98700000,0.30000000,-0.09000000,-0.05000000,0.17833966,0.16349257,-0.05741564,8.44000000,0.12000000,0.08000000
825,0,-0.00000000,0.14300000,0.99100000,-0.09000000,-0.06000000,-0.22000000,0.17820562,0.16340321,-0.05774328,8.44000000,0.12000000,0.08000000
826,0,0.00300000,0.14000000,0.99300000,-0.00000000,0.03000000,-0.34000000,0.17820562,0.16344794,-0.05825019,8.44000000,0.12000000,0.08000000
827,0,-0.00200000,0.13800000,0.99100000,-0.10000000,-0.07000000,0.16000000,0.17297876,0.15978914,-0.04988722,8.43000000,0.12000000,0.08000000
828,0,0.00200000,0.14000000,0.98800000,0.24000000,0.09000000,0.07000000,0.17332571,0.15991924,-0.04978602,8.43000000,0.12000000,0.08000000
829,0,-0.00300000,0.13900000,0.99000000,0.03000000,-0.03000000,-0.07000000,0.17336593,0.15987902,-0.04987987,8.43000000,0.11000000,0.08000000
830,0,-0.00100000,0.14200000,0.99600000,-0.10000000,-0.07000000,0.04000000,0.17323200,0.15978527,-0.04982630,8.43000000,0.11000000,0.08000000
831,0,0.00000000,0.14200000,0.98700000,-0.12000000,0.02000000,-0.23000000,0.17307481,0.15981147,-0.05012760,8.43000000,0.12000000,0.08000000
832,0,-0.00200000,0.13900000,0.99600000,0.06000000,-0.04000000,-0.07000000,0.17315497,0.15975803,-0.05022111,8.43000000,0.11000000,0.08000000
833,0,-0.00400000,0.14400000,0.99200000,-0.03000000,-0.10000000,-0.04000000,0.17151810,0.15430181,-0.05240360,8.43000000,0.11000000,0.08000000
834,0,0.00100000,0.14500000,0.99000000,0.21000000,-0.15000000,0.06000000,0.17180541,0.15409659,-0.05232151,8.42000000,0.11000000,0.08000000
835,0,0.00500000,0.14300000,0.98900000,-0.07000000,0.12000000,-0.23000000,0.17171567,0.15425044,-0.05261639,8.42000000,0.11000000,0.08000000
836,0,-0.00200000,0.14100000,0.98600000,-0.08000000,-0.13000000,0.05000000,0.17161571,0.15408801,-0.05255392,8.42000000,0.11000000,0.08000000
837,0,-0.00100000,0.14300000,0.99100000,-0.08000000,0.19000000,0.19000000,0.17151730,0.15432173,-0.05232020,8.42000000,0.11000000,0.08000000
838,0,0.00000000,0.13600000,0.99000000,-0.13000000,-0.10000000,0.19000000,0.17135696,0.15419839,-0.05208585,8.42000000,0.11000000,0.08000000
839,0,0.00000000,0.14000000,0.98900000,-0.06000000,0.17000000,-0.17000000,0.16811055,0.16339655,-0.06128400,8.42000000,0.11000000,0.08000000
840,0,-0.00100000,0.13800000,0.99400000,-0.02000000,-0.12000000,-0.11000000,0.16808472,0.16324161,-0.06142603,8.42000000,0.11000000,0.08000000
841,0,0.00200000,0.14100000,0.98900000,-0.16000000,-0.10000000,0.09000000,0.16788310,0.16311560,-0.06131262,8.41000000,0.11000000,0.08000000
842,0,-0.00200000,0.14200000,0.99200000,-0.01000000,-0.26000000,0.03000000,0.16787072,0.16279379,-0.06127548,8.41000000,0.11000000,0.08000000
843,0,0.00100000,0.14200000,0.99000000,0.14000000,-0.19000000,0.21000000,0.16804321,0.16255970,-0.06101676,8.41000000,0.10000000,0.08000000
844,0,0.00500000,0.14300000,0.99300000,0.22000000,0.15000000,-0.27000000,0.16832437,0.16275141,-0.06136183,8.41000000,0.10000000,0.08000000
845,0,0.00000000,0.14100000,0.98900000,0.41000000,-0.06000000,-0.03000000,0.19068480,0.15947915,-0.06299796,8.41000000,0.10000000,0.08000000
846,0,-0.00100000,0.14100000,0.98800000,0.07000000,-0.04000000,0.00000000,0.19078503,0.15942188,-0.06299796,8.41000000,0.10000000,0.08000000
847,0,-0.00200000,0.14300000,0.99300000,-0.19000000,0.04000000,0.09000000,0.19052137,0.15947739,-0.06287307,8.41000000,0.10000000,0.08000000
848,0,-0.00300000,0.13700000,0.99400000,0.08000000,-0.00000000,-0.04000000,0.19063561,0.15947739,-0.06293018,8.40000000,0.10000000,0.08000000
849,0,0.00400000,0.14600000,0.99200000,-0.19000000,0.08000000,0.01000000,0.19036279,0.15959225,-0.06291583,8.40000000,0.10000000,0.08000000
