Measurement Count,IMU_MODE,Accel_X,Accel_Y,Accel_Z,Gyro_X,Gyro_Y,Gyro_Z,X_DEL_ANG,Y_DEL_ANG,Z_DEL_ANG,ROLL,PITCH,HEADING
1,0,0.11200000,-0.40000000,0.90800000,-0.19000000,-0.13000000,0.02000000,-0.05764911,-0.03944413,0.00606833,-23.71000000,-6.32000000,0.00000000
2,0,0.11200000,-0.40600000,0.90800000,0.32000000,-0.13000000,-0.09000000,-0.05731964,-0.03957797,0.00597566,-24.02000000,-6.33000000,0.04000000
3,0,0.11300000,-0.40500000,0.90700000,0.07000000,0.15000000,-0.01000000,-0.05724970,-0.03942811,0.00596567,-24.06000000,-6.37000000,0.04000000
4,0,0.10900000,-0.40800000,0.90900000,0.16000000,-0.01000000,-0.21000000,-0.05709130,-0.03943801,0.00575777,-24.12000000,-6.32000000,0.04000000
5,0,0.10900000,-0.40400000,0.91300000,-0.03000000,-0.26000000,-0.14000000,-0.05712131,-0.03969814,0.00561770,-24.11000000,-6.30000000,0.04000000
6,0,0.10800000,-0.40700000,0.90700000,0.01000000,-0.10000000,0.14000000,-0.05711086,-0.03980272,0.00576411,-24.10000000,-6.32000000,0.04000000
7,0,0.10600000,-0.40200000,0.91200000,0.11000000,0.01000000,0.03000000,-0.05699752,-0.03979242,0.00579502,-24.08000000,-6.30000000,0.04000000
8,0,0.10700000,-0.40400000,0.91100000,-0.01000000,-0.03000000,-0.06000000,-0.05700769,-0.03982293,0.00573400,-24.07000000,-6.28000000,0.04000000
9,0,0.10500000,-0.40700000,0.90800000,-0.18000000,-0.08000000,0.19000000,-0.05718924,-0.03990362,0.00592564,-24.08000000,-6.23000000,0.04000000
10,0,0.11200000,-0.40600000,0.90400000,0.04000000,0.01000000,0.02000000,-0.05714843,-0.03989342,0.00594605,-24.09000000,-6.22000000,0.04000000
11,0,0.11500000,-0.40400000,0.90500000,0.04000000,0.02000000,0.10000000,-0.05710914,-0.03987377,0.00604426,-24.09000000,-6.24000000,0.04000000
12,0,0.11100000,-0.40300000,0.90600000,0.17000000,-0.04000000,-0.16000000,-0.05693792,-0.03991406,0.00588311,-24.10000000,-6.24000000,0.04000000
13,0,0.10900000,-0.40700000,0.90800000,0.04000000,-0.27000000,0.02000000,-0.05689379,-0.04021194,0.00590518,-24.10000000,-6.26000000,0.04000000
14,0,0.11000000,-0.40500000,0.90500000,-0.11000000,0.05000000,-0.07000000,-0.05702664,-0.04015156,0.00582064,-24.10000000,-6.26000000,0.04000000
15,0,0.10700000,-0.40400000,0.90600000,-0.07000000,-0.18000000,0.06000000,-0.05715157,-0.04047280,0.00592772,-24.10000000,-6.25000000,0.04000000
16,0,0.10500000,-0.41000000,0.90400000,0.08000000,0.24000000,-0.04000000,-0.05705741,-0.04019033,0.00588064,-24.10000000,-6.25000000,0.04000000
17,0,0.11100000,-0.41100000,0.90600000,0.17000000,-0.31000000,0.14000000,-0.05682385,-0.04061623,0.00607298,-24.10000000,-6.25000000,0.05000000
18,0,0.11300000,-0.40600000,0.90600000,-0.09000000,0.24000000,0.26000000,-0.05693508,-0.04031963,0.00639430,-24.10000000,-6.25000000,0.05000000
19,0,0.11400000,-0.40200000,0.91200000,-0.25000000,0.14000000,-0.06000000,-0.05721477,-0.04016301,0.00632717,-24.08000000,-6.24000000,0.04000000
20,0,0.10900000,-0.40200000,0.90500000,-0.11000000,-0.01000000,-0.04000000,-0.05733550,-0.04017398,0.00628327,-24.08000000,-6.24000000,0.04000000
21,0,0.10800000,-0.40600000,0.90800000,0.13000000,0.12000000,-0.00000000,-0.05718634,-0.04003630,0.00628327,-24.08000000,-6.24000000,0.04000000
22,0,0.11100000,-0.40400000,0.90700000,0.17000000,0.17000000,0.08000000,-0.05701366,-0.03986362,0.00636453,-24.07000000,-6.25000000,0.04000000
23,0,0.11000000,-0.40900000,0.90500000,0.28000000,0.07000000,0.20000000,-0.05672217,-0.03979075,0.00657274,-24.08000000,-6.25000000,0.04000000
24,0,0.10500000,-0.40600000,0.90500000,-0.07000000,-0.34000000,0.35000000,-0.05681974,-0.04026467,0.00706060,-24.08000000,-6.25000000,0.04000000
25,0,0.10600000,-0.40600000,0.90800000,-0.02000000,0.08000000,-0.10000000,-0.05684598,-0.04015972,0.00692941,-24.08000000,-6.25000000,0.04000000
26,0,0.10600000,-0.40200000,0.90500000,0.00000000,-0.05000000,-0.14000000,-0.05684598,-0.04022419,0.00674889,-24.08000000,-6.25000000,0.04000000
27,0,0.10500000,-0.40300000,0.90200000,-0.30000000,-0.13000000,0.40000000,-0.05721594,-0.04038451,0.00724217,-24.09000000,-6.25000000,0.05000000
28,0,0.11100000,-0.40400000,0.90900000,-0.11000000,-0.13000000,0.05000000,-0.05741249,-0.04061680,0.00733151,-24.09000000,-6.25000000,0.05000000
29,0,0.10900000,-0.40600000,0.90600000,0.09000000,-0.11000000,-0.02000000,-0.05602835,-0.04230852,0.00702392,-24.09000000,-6.25000000,0.05000000
30,0,0.11100000,-0.40400000,0.90500000,0.28000000,0.31000000,0.15000000,-0.05568586,-0.04192933,0.00720740,-24.10000000,-6.26000000,0.05000000
31,0,0.10500000,-0.40900000,0.90300000,-0.05000000,0.08000000,0.05000000,-0.05573921,-0.04184397,0.00726075,-24.09000000,-6.26000000,0.05000000
32,0,0.10700000,-0.40500000,0.90400000,-0.24000000,-0.03000000,0.01000000,-0.05598866,-0.04187515,0.00727115,-24.09000000,-6.26000000,0.05000000
33,0,0.10900000,-0.40900000,0.90600000,-0.02000000,-0.24000000,-0.07000000,-0.05600931,-0.04212299,0.00719886,-24.10000000,-6.26000000,0.05000000
34,0,0.10700000,-0.40400000,0.91000000,-0.22000000,0.08000000,0.19000000,-0.05623299,-0.04204166,0.00739204,-24.10000000,-6.26000000,0.05000000
35,0,0.10900000,-0.40600000,0.91300000,-0.13000000,-0.08000000,-0.16000000,-0.06329297,-0.04638626,-0.00129717,-24.10000000,-6.26000000,0.05000000
36,0,0.10600000,-0.41000000,0.90700000,0.19000000,0.01000000,0.08000000,-0.06309096,-0.04637563,-0.00121212,-24.10000000,-6.25000000,0.05000000
37,0,0.10900000,-0.40500000,0.90600000,-0.02000000,0.20000000,0.14000000,-0.06311167,-0.04616857,-0.00106717,-24.10000000,-6.25000000,0.05000000
38,0,0.10800000,-0.40300000,0.90500000,-0.08000000,0.12000000,-0.13000000,-0.06319679,-0.04604090,-0.00120548,-24.10000000,-6.25000000,0.05000000
39,0,0.10700000,-0.41000000,0.90700000,-0.10000000,0.08000000,-0.27000000,-0.06330003,-0.04595830,-0.00148425,-24.10000000,-6.25000000,0.05000000
40,0,0.11000000,-0.40600000,0.90800000,-0.19000000,0.08000000,-0.14000000,-0.06349502,-0.04587620,-0.00162792,-24.10000000,-6.25000000,0.05000000
41,0,0.10200000,-0.40400000,0.91000000,0.03000000,-0.09000000,-0.09000000,-0.06180505,-0.05094610,-0.00669782,-24.10000000,-6.25000000,0.05000000
42,0,0.11400000,-0.40400000,0.91400000,0.11000000,-0.19000000,-0.00000000,-0.06169138,-0.05114245,-0.00669782,-24.10000000,-6.25000000,0.05000000
43,0,0.11000000,-0.40800000,0.91000000,-0.00000000,-0.13000000,-0.07000000,-0.06169138,-0.05127037,-0.00676670,-24.10000000,-6.25000000,0.05000000
44,0,0.11300000,-0.40300000,0.90900000,0.20000000,0.00000000,0.03000000,-0.06149509,-0.05127037,-0.00673726,-24.09000000,-6.25000000,0.05000000
45,0,0.10500000,-0.40100000,0.91000000,-0.02000000,-0.13000000,0.11000000,-0.06151523,-0.05140128,-0.00662650,-24.09000000,-6.25000000,0.05000000
46,0,0.11100000,-0.40700000,0.90400000,-0.05000000,-0.38000000,-0.31000000,-0.06156512,-0.05178047,-0.00693584,-24.09000000,-6.25000000,0.05000000
47,0,0.11100000,-0.41100000,0.90200000,0.03000000,0.08000000,0.10000000,-0.05989678,-0.04733155,-0.00137469,-24.09000000,-6.25000000,0.05000000
48,0,0.10800000,-0.40700000,0.90700000,0.18000000,-0.01000000,-0.15000000,-0.05971068,-0.04734189,-0.00152978,-24.09000000,-6.25000000,0.05000000
49,0,0.10600000,-0.41000000,0.90500000,-0.08000000,-0.02000000,0.07000000,-0.05979063,-0.04736188,-0.00145983,-24.09000000,-6.25000000,0.05000000
50,0,0.10600000,-0.40600000,0.91100000,-0.08000000,-0.25000000,0.14000000,-0.05987057,-0.04761171,-0.00131992,-24.09000000,-6.25000000,0.05000000
51,0,0.11000000,-0.40700000,0.90800000,0.01000000,0.13000000,0.13000000,-0.05986060,-0.04748214,-0.00119035,-24.09000000,-6.25000000,0.05000000
52,0,0.10800000,-0.40500000,0.90400000,0.46000000,0.16000000,-0.12000000,-0.05940487,-0.04732362,-0.00130924,-24.09000000,-6.25000000,0.05000000
53,0,0.10600000,-0.40300000,0.90700000,0.02000000,-0.05000000,-0.32000000,-0.05829544,-0.05009720,-0.01906013,-24.09000000,-6.25000000,0.05000000
54,0,0.10600000,-0.40400000,0.90900000,0.09000000,0.19000000,0.03000000,-0.05820269,-0.04990139,-0.01902921,-24.09000000,-6.25000000,0.05000000
55,0,0.10600000,-0.40400000,0.91200000,-0.29000000,0.05000000,-0.09000000,-0.05848931,-0.04985197,-0.01911816,-24.09000000,-6.25000000,0.05000000
56,0,0.11300000,-0.40900000,0.91000000,-0.06000000,-0.15000000,0.04000000,-0.05854805,-0.04999883,-0.01907900,-24.09000000,-6.24000000,0.05000000
57,0,0.11500000,-0.40700000,0.91000000,0.07000000,-0.02000000,-0.07000000,-0.05847878,-0.05001862,-0.01914827,-24.09000000,-6.25000000,0.05000000
58,0,0.11000000,-0.40500000,0.90900000,0.08000000,0.01000000,-0.14000000,-0.05839964,-0.05000873,-0.01928677,-24.09000000,-6.25000000,0.05000000
59,0,0.11100000,-0.40700000,0.90400000,0.11000000,0.02000000,0.02000000,-0.05216803,-0.04887571,-0.01815375,-24.09000000,-6.25000000,0.05000000
60,0,0.10800000,-0.40500000,0.90800000,0.01000000,0.24000000,0.04000000,-0.05215752,-0.04862352,-0.01811172,-24.09000000,-6.25000000,0.05000000
61,0,0.10500000,-0.40800000,0.91000000,-0.05000000,0.01000000,-0.05000000,-0.05220724,-0.04861357,-0.01816143,-24.09000000,-6.25000000,0.05000000
62,0,0.10700000,-0.40900000,0.90400000,-0.10000000,-0.04000000,0.00000000,-0.05230741,-0.04865364,-0.01816143,-24.09000000,-6.25000000,0.05000000
63,0,0.10700000,-0.40600000,0.90500000,0.05000000,0.17000000,-0.04000000,-0.05225821,-0.04848635,-0.01820079,-24.09000000,-6.26000000,0.05000000
64,0,0.10600000,-0.40600000,0.90300000,-0.04000000,0.14000000,0.03000000,-0.05230012,-0.04833964,-0.01816936,-24.09000000,-6.25000000,0.05000000
65,0,0.10800000,-0.40100000,0.90500000,0.11000000,0.22000000,0.02000000,-0.04619191,-0.03612321,-0.01705877,-24.09000000,-6.25000000,0.05000000
66,0,0.10500000,-0.40600000,0.90200000,-0.19000000,0.13000000,-0.28000000,-0.04663138,-0.03582252,-0.01770641,-24.09000000,-6.25000000,0.05000000
67,0,0.11100000,-0.40800000,0.90700000,-0.02000000,0.09000000,-0.11000000,-0.04665383,-0.03572151,-0.01782987,-24.09000000,-6.25000000,0.05000000
68,0,0.10900000,-0.40100000,0.91100000,-0.01000000,-0.02000000,0.15000000,-0.04666397,-0.03574180,-0.01767768,-24.09000000,-6.25000000,0.05000000
69,0,0.10900000,-0.40600000,0.90800000,-0.00000000,-0.18000000,-0.03000000,-0.04666397,-0.03592897,-0.01770888,-24.09000000,-6.25000000,0.05000000
70,0,0.11100000,-0.40500000,0.90500000,0.05000000,0.05000000,0.12000000,-0.04661118,-0.03587618,-0.01758218,-24.09000000,-6.25000000,0.05000000
71,0,0.10600000,-0.40300000,0.90900000,-0.08000000,0.12000000,0.12000000,-0.05093662,-0.02938803,-0.01109403,-24.09000000,-6.25000000,0.05000000
72,0,0.10500000,-0.40200000,0.90900000,-0.20000000,-0.13000000,-0.05000000,-0.05114530,-0.02952367,-0.01114620,-24.09000000,-6.25000000,0.05000000
73,0,0.11100000,-0.40800000,0.91000000,0.05000000,-0.00000000,-0.17000000,-0.05109513,-0.02952367,-0.01131677,-24.09000000,-6.25000000,0.05000000
74,0,0.10700000,-0.40400000,0.90700000,0.10000000,0.04000000,-0.05000000,-0.05099444,-0.02948339,-0.01136712,-24.09000000,-6.25000000,0.05000000
75,0,0.11400000,-0.40700000,0.90900000,-0.10000000,0.15000000,-0.01000000,-0.05109366,-0.02933457,-0.01137704,-24.09000000,-6.25000000,0.05000000
76,0,0.10800000,-0.40600000,0.90800000,0.06000000,0.09000000,-0.07000000,-0.05103401,-0.02924510,-0.01144662,-24.09000000,-6.25000000,0.05000000
77,0,0.11300000,-0.40400000,0.90700000,0.18000000,-0.00000000,0.07000000,-0.04101893,-0.02924510,-0.00755187,-24.09000000,-6.25000000,0.05000000
78,0,0.11200000,-0.40600000,0.91000000,0.02000000,-0.21000000,-0.04000000,-0.04099824,-0.02946227,-0.00759323,-24.09000000,-6.26000000,0.05000000
79,0,0.10700000,-0.40400000,0.90800000,0.13000000,-0.18000000,-0.02000000,-0.04087007,-0.02963974,-0.00761295,-24.09000000,-6.25000000,0.05000000
80,0,0.10900000,-0.40900000,0.90800000,-0.07000000,-0.01000000,-0.11000000,-0.04094042,-0.02964979,-0.00772351,-24.09000000,-6.26000000,0.05000000
81,0,0.10900000,-0.41100000,0.90900000,-0.00000000,-0.03000000,0.15000000,-0.04094042,-0.02967953,-0.00757482,-24.09000000,-6.25000000,0.05000000
82,0,0.11200000,-0.40700000,0.90500000,0.09000000,0.12000000,-0.19000000,-0.04085192,-0.02956153,-0.00776166,-24.09000000,-6.26000000,0.05000000
83,0,0.10800000,-0.40900000,0.90500000,0.05000000,0.11000000,0.07000000,-0.03803774,-0.02337033,-0.00382181,-24.09000000,-6.26000000,0.05000000
84,0,0.10800000,-0.40300000,0.90600000,-0.16000000,-0.11000000,0.08000000,-0.03820255,-0.02348364,-0.00373940,-24.09000000,-6.26000000,0.05000000
85,0,0.10800000,-0.41100000,0.90400000,0.11000000,-0.02000000,0.13000000,-0.03809278,-0.02350360,-0.00360968,-24.09000000,-6.26000000,0.06000000
86,0,0.10600000,-0.40800000,0.90800000,-0.19000000,-0.05000000,0.10000000,-0.03828080,-0.02355308,-0.00351072,-24.09000000,-6.26000000,0.06000000
87,0,0.10900000,-0.40300000,0.91200000,-0.17000000,-0.00000000,-0.08000000,-0.03844776,-0.02355308,-0.00358930,-24.09000000,-6.25000000,0.05000000
88,0,0.10700000,-0.41000000,0.90200000,-0.00000000,0.02000000,-0.14000000,-0.03844776,-0.02353337,-0.00372723,-24.09000000,-6.25000000,0.06000000
89,0,0.11300000,-0.40500000,0.90800000,0.12000000,0.01000000,-0.14000000,-0.03177627,-0.02297742,-0.01151063,-24.09000000,-6.25000000,0.06000000
90,0,0.11100000,-0.40200000,0.90700000,0.11000000,-0.13000000,0.04000000,-0.03166192,-0.02311256,-0.01146905,-24.09000000,-6.25000000,0.05000000
91,0,0.10700000,-0.40300000,0.91000000,-0.24000000,0.06000000,0.06000000,-0.03190273,-0.02305236,-0.01140885,-24.09000000,-6.25000000,0.05000000
92,0,0.10500000,-0.40700000,0.90700000,0.14000000,0.10000000,0.07000000,-0.03176446,-0.02295360,-0.01133971,-24.09000000,-6.25000000,0.05000000
93,0,0.10700000,-0.40300000,0.90700000,0.05000000,-0.03000000,-0.07000000,-0.03171508,-0.02298323,-0.01140885,-24.09000000,-6.25000000,0.05000000
94,0,0.10700000,-0.40800000,0.90500000,-0.26000000,0.00000000,0.10000000,-0.03197236,-0.02298323,-0.01130989,-24.09000000,-6.25000000,0.05000000
95,0,0.11000000,-0.40900000,0.90500000,-0.01000000,-0.00000000,0.01000000,-0.03253784,-0.02298323,-0.01074441,-24.09000000,-6.25000000,0.05000000
96,0,0.11300000,-0.40200000,0.90500000,-0.14000000,-0.13000000,-0.24000000,-0.03268609,-0.02312089,-0.01099855,-24.09000000,-6.25000000,0.05000000
97,0,0.11100000,-0.40900000,0.90400000,0.06000000,-0.08000000,0.09000000,-0.03262597,-0.02320104,-0.01090838,-24.09000000,-6.25000000,0.05000000
98,0,0.10500000,-0.40200000,0.90800000,0.02000000,0.03000000,0.04000000,-0.03260629,-0.02317151,-0.01086900,-24.09000000,-6.25000000,0.05000000
99,0,0.10500000,-0.40500000,0.90600000,-0.05000000,-0.08000000,-0.23000000,-0.03265543,-0.02325014,-0.01109506,-24.09000000,-6.25000000,0.05000000
100,0,0.10700000,-0.41100000,0.90900000,0.01000000,0.03000000,-0.10000000,-0.03264547,-0.02322027,-0.01119464,-24.09000000,-6.25000000,0.05000000
101,0,0.11300000,-0.40600000,0.90600000,-0.32000000,0.09000000,-0.05000000,-0.05041688,-0.01822206,-0.01397142,-24.09000000,-6.25000000,0.05000000
102,0,0.11000000,-0.40500000,0.90400000,-0.04000000,-0.01000000,0.16000000,-0.05045924,-0.01823265,-0.01380199,-24.09000000,-6.25000000,0.05000000
103,0,0.10400000,-0.40500000,0.90500000,-0.01000000,-0.06000000,0.00000000,-0.05046921,-0.01829248,-0.01380199,-24.09000000,-6.25000000,0.05000000
104,0,0.11300000,-0.40300000,0.91000000,0.14000000,0.15000000,0.17000000,-0.05033061,-0.01814398,-0.01363369,-24.09000000,-6.25000000,0.05000000
105,0,0.10900000,-0.40300000,0.90900000,-0.29000000,0.25000000,-0.11000000,-0.05061751,-0.01789665,-0.01374251,-24.09000000,-6.25000000,0.05000000
106,0,0.11100000,-0.40600000,0.90300000,-0.00000000,0.06000000,-0.10000000,-0.05061751,-0.01783721,-0.01384159,-24.09000000,-6.25000000,0.05000000
107,0,0.10800000,-0.40800000,0.90500000,0.16000000,0.12000000,0.06000000,-0.04171822,-0.01116274,-0.01050435,-24.09000000,-6.25000000,0.05000000
108,0,0.11000000,-0.40800000,0.91000000,-0.06000000,0.11000000,-0.01000000,-0.04178158,-0.01104658,-0.01051491,-24.09000000,-6.25000000,0.05000000
109,0,0.11000000,-0.40100000,0.91400000,0.11000000,0.30000000,-0.05000000,-0.04167218,-0.01074821,-0.01056464,-24.09000000,-6.25000000,0.05000000
110,0,0.10900000,-0.40200000,0.90700000,-0.00000000,-0.15000000,0.11000000,-0.04167218,-0.01089614,-0.01045616,-24.09000000,-6.25000000,0.05000000
111,0,0.10800000,-0.40700000,0.91000000,0.02000000,0.25000000,-0.09000000,-0.04165243,-0.01064924,-0.01054505,-24.09000000,-6.25000000,0.05000000
112,0,0.11000000,-0.40700000,0.90300000,-0.06000000,-0.12000000,-0.10000000,-0.04171200,-0.01076838,-0.01064433,-24.09000000,-6.25000000,0.05000000
113,0,0.10800000,-0.40500000,0.90600000,-0.10000000,0.14000000,0.20000000,-0.04735567,-0.00286725,0.00064299,-24.09000000,-6.25000000,0.05000000
114,0,0.10600000,-0.40700000,0.90800000,0.05000000,0.06000000,-0.16000000,-0.04730353,-0.00280469,0.00047616,-24.09000000,-6.25000000,0.05000000
115,0,0.11200000,-0.40600000,0.90900000,0.05000000,0.24000000,0.17000000,-0.04725379,-0.00256594,0.00064527,-24.09000000,-6.25000000,0.05000000
116,0,0.10700000,-0.40600000,0.90500000,-0.06000000,-0.44000000,-0.21000000,-0.04731364,-0.00300480,0.00043582,-24.09000000,-6.26000000,0.05000000
117,0,0.10700000,-0.40800000,0.90900000,-0.19000000,-0.01000000,-0.18000000,-0.04750156,-0.00301469,0.00025779,-24.09000000,-6.26000000,0.05000000
118,0,0.11500000,-0.41100000,0.90700000,0.04000000,0.06000000,0.10000000,-0.04746128,-0.00295427,0.00035848,-24.09000000,-6.26000000,0.05000000
119,0,0.10500000,-0.40700000,0.90800000,-0.01000000,0.28000000,0.12000000,-0.04804680,0.01344012,0.00738465,-24.09000000,-6.26000000,0.05000000
120,0,0.10700000,-0.40500000,0.90800000,-0.18000000,-0.14000000,-0.07000000,-0.04824049,0.01328947,0.00730933,-24.09000000,-6.26000000,0.05000000
121,0,0.10900000,-0.40500000,0.90700000,0.09000000,-0.00000000,0.12000000,-0.04815000,0.01328947,0.00742999,-24.09000000,-6.26000000,0.05000000
122,0,0.10700000,-0.40700000,0.91000000,0.05000000,-0.07000000,-0.00000000,-0.04810029,0.01321988,0.00742999,-24.09000000,-6.26000000,0.05000000
123,0,0.10700000,-0.40500000,0.90800000,-0.10000000,-0.17000000,0.04000000,-0.04819972,0.01305085,0.00746976,-24.09000000,-6.26000000,0.05000000
124,0,0.10800000,-0.40300000,0.90900000,0.23000000,-0.08000000,-0.04000000,-0.04797015,0.01297100,0.00742983,-24.09000000,-6.26000000,0.05000000
125,0,0.10800000,-0.40500000,0.90700000,0.04000000,0.22000000,0.09000000,-0.04792989,0.01319248,0.00752044,-24.09000000,-6.26000000,0.05000000
126,0,0.10500000,-0.40700000,0.90800000,0.02000000,0.15000000,-0.02000000,-0.04682072,0.02151120,0.00641127,-24.09000000,-6.26000000,0.05000000
127,0,0.11200000,-0.40800000,0.90700000,0.09000000,0.12000000,-0.03000000,-0.04672615,0.02163730,0.00637975,-24.09000000,-6.26000000,0.05000000
128,0,0.11100000,-0.40700000,0.90400000,0.00000000,-0.11000000,0.10000000,-0.04672615,0.02152753,0.00647954,-24.09000000,-6.26000000,0.05000000
129,0,0.11200000,-0.40500000,0.90600000,-0.04000000,-0.00000000,0.17000000,-0.04676592,0.02152753,0.00664857,-24.09000000,-6.26000000,0.05000000
130,0,0.10800000,-0.40400000,0.90700000,-0.32000000,0.23000000,-0.07000000,-0.04708463,0.02175661,0.00657885,-24.09000000,-6.26000000,0.05000000
131,0,0.11200000,-0.40800000,0.90700000,-0.11000000,-0.15000000,-0.25000000,-0.04719537,0.02160560,0.00632718,-24.09000000,-6.26000000,0.05000000
132,0,0.10800000,-0.40300000,0.91000000,-0.01000000,-0.05000000,-0.12000000,-0.04775330,0.01881597,-0.00036794,-24.09000000,-6.26000000,0.05000000
133,0,0.10500000,-0.40300000,0.90900000,-0.04000000,-0.01000000,-0.20000000,-0.04779787,0.01880483,-0.00059079,-24.09000000,-6.26000000,0.05000000
134,0,0.10900000,-0.40600000,0.90700000,0.03000000,-0.10000000,0.03000000,-0.04776790,0.01870494,-0.00056083,-24.09000000,-6.26000000,0.05000000
135,0,0.11500000,-0.40700000,0.90400000,0.10000000,0.29000000,0.14000000,-0.04766878,0.01899239,-0.00042206,-24.09000000,-6.26000000,0.05000000
136,0,0.10500000,-0.40900000,0.90600000,0.19000000,-0.16000000,-0.17000000,-0.04747869,0.01883231,-0.00059214,-24.09000000,-6.26000000,0.05000000
137,0,0.11000000,-0.40400000,0.90800000,-0.13000000,-0.21000000,0.04000000,-0.04760826,0.01862301,-0.00055228,-24.09000000,-6.26000000,0.05000000
138,0,0.10600000,-0.40400000,0.91200000,-0.21000000,-0.28000000,0.09000000,-0.05940643,0.00289211,0.00450408,-24.09000000,-6.26000000,0.05000000
139,0,0.10300000,-0.40300000,0.90500000,0.15000000,-0.28000000,0.14000000,-0.05924827,0.00259688,0.00465170,-24.09000000,-6.26000000,0.05000000
140,0,0.10900000,-0.40300000,0.91100000,-0.10000000,-0.30000000,-0.02000000,-0.05934803,0.00229759,0.00463175,-24.09000000,-6.26000000,0.05000000
141,0,0.10400000,-0.40300000,0.90800000,0.01000000,0.23000000,0.14000000,-0.05933811,0.00252595,0.00477075,-24.09000000,-6.26000000,0.05000000
142,0,0.11000000,-0.40700000,0.91200000,-0.01000000,0.06000000,0.13000000,-0.05934809,0.00258587,0.00490057,-24.09000000,-6.26000000,0.05000000
143,0,0.11300000,-0.40500000,0.91000000,0.01000000,0.13000000,-0.11000000,-0.05933810,0.00271581,0.00479062,-24.09000000,-6.26000000,0.05000000
144,0,0.11000000,-0.40600000,0.90700000,-0.05000000,0.10000000,0.04000000,-0.06211478,0.00826918,0.00701197,-24.09000000,-6.26000000,0.05000000
145,0,0.10800000,-0.40500000,0.91000000,0.09000000,-0.04000000,-0.07000000,-0.06202015,0.00822712,0.00693836,-24.08000000,-6.26000000,0.05000000
146,0,0.11000000,-0.40600000,0.90500000,0.16000000,0.08000000,-0.04000000,-0.06186045,0.00830697,0.00689843,-24.08000000,-6.26000000,0.05000000
147,0,0.10900000,-0.40400000,0.90400000,0.01000000,0.35000000,-0.19000000,-0.06185054,0.00865356,0.00671029,-24.08000000,-6.26000000,0.05000000
148,0,0.10200000,-0.40700000,0.90800000,-0.22000000,-0.12000000,-0.05000000,-0.06207097,0.00853333,0.00666019,-24.09000000,-6.26000000,0.05000000
149,0,0.11100000,-0.40500000,0.90400000,0.04000000,-0.26000000,0.29000000,-0.06203115,0.00827450,0.00694888,-24.09000000,-6.26000000,0.05000000
150,0,0.11000000,-0.40900000,0.90500000,0.12000000,0.32000000,-0.02000000,-0.05524994,0.02635772,0.00581868,-24.09000000,-6.26000000,0.05000000
151,0,0.11100000,-0.40100000,0.90400000,-0.08000000,0.10000000,0.10000000,-0.05533351,0.02646218,0.00592314,-24.09000000,-6.26000000,0.05000000
152,0,0.11200000,-0.40700000,0.91100000,-0.03000000,0.02000000,-0.07000000,-0.05536340,0.02648211,0.00585339,-24.09000000,-6.26000000,0.05000000
153,0,0.10800000,-0.40300000,0.90600000,0.05000000,0.09000000,-0.02000000,-0.05531357,0.02657181,0.00583346,-24.09000000,-6.26000000,0.05000000
154,0,0.10600000,-0.40300000,0.91000000,0.06000000,-0.18000000,-0.17000000,-0.05525411,0.02639344,0.00566499,-24.09000000,-6.26000000,0.05000000
155,0,0.10700000,-0.40400000,0.90400000,-0.07000000,0.04000000,0.24000000,-0.05532637,0.02643473,0.00591273,-24.09000000,-6.26000000,0.05000000
156,0,0.10600000,-0.40900000,0.91000000,-0.01000000,-0.05000000,-0.07000000,-0.05588173,0.02365793,0.00202521,-24.09000000,-6.26000000,0.05000000
157,0,0.10900000,-0.40400000,0.90900000,0.05000000,0.12000000,0.16000000,-0.05582743,0.02378824,0.00219895,-24.09000000,-6.26000000,0.05000000
158,0,0.10800000,-0.40700000,0.90800000,-0.38000000,-0.13000000,-0.18000000,-0.05622946,0.02365070,0.00200852,-24.09000000,-6.26000000,0.05000000
159,0,0.10300000,-0.40200000,0.90800000,0.04000000,0.05000000,-0.09000000,-0.05618665,0.02370421,0.00191220,-24.09000000,-6.26000000,0.05000000
160,0,0.10700000,-0.40500000,0.90500000,-0.04000000,0.21000000,0.07000000,-0.05622934,0.02392833,0.00198691,-24.09000000,-6.26000000,0.05000000
161,0,0.11000000,-0.40700000,0.91000000,-0.08000000,0.11000000,-0.18000000,-0.05631347,0.02404400,0.00179764,-24.09000000,-6.26000000,0.05000000
162,0,0.11400000,-0.40300000,0.90900000,-0.06000000,-0.09000000,-0.05000000,-0.05962509,0.01907656,-0.00096205,-24.09000000,-6.26000000,0.05000000
163,0,0.10700000,-0.40400000,0.90700000,-0.13000000,-0.00000000,0.07000000,-0.05976715,0.01907656,-0.00088556,-24.09000000,-6.26000000,0.05000000
164,0,0.11100000,-0.40400000,0.90700000,-0.08000000,-0.11000000,-0.01000000,-0.05985227,0.01895953,-0.00089619,-24.09000000,-6.26000000,0.05000000
165,0,0.10800000,-0.40800000,0.90700000,-0.04000000,0.06000000,0.10000000,-0.05989514,0.01902384,-0.00078902,-24.09000000,-6.26000000,0.05000000
166,0,0.10900000,-0.40800000,0.90900000,-0.16000000,0.10000000,0.07000000,-0.06006384,0.01912928,-0.00071521,-24.09000000,-6.26000000,0.05000000
167,0,0.10700000,-0.40600000,0.90500000,0.25000000,0.06000000,-0.12000000,-0.05979744,0.01919321,-0.00084308,-24.09000000,-6.26000000,0.05000000
168,0,0.10700000,-0.40100000,0.90900000,0.11000000,-0.09000000,0.13000000,-0.05368994,0.01419616,0.00637488,-24.09000000,-6.26000000,0.05000000
169,0,0.11100000,-0.40700000,0.90900000,-0.14000000,0.01000000,0.46000000,-0.05384273,0.01420708,0.00687690,-24.09000000,-6.26000000,0.05000000
170,0,0.11000000,-0.40500000,0.91000000,-0.03000000,0.28000000,-0.11000000,-0.05387478,0.01450624,0.00675937,-24.09000000,-6.26000000,0.05000000
171,0,0.11300000,-0.40400000,0.90700000,-0.07000000,0.14000000,0.02000000,-0.05395169,0.01466007,0.00678135,-24.09000000,-6.26000000,0.05000000
172,0,0.11000000,-0.40900000,0.90600000,0.02000000,-0.14000000,0.11000000,-0.05393050,0.01451172,0.00689790,-24.09000000,-6.26000000,0.06000000
173,0,0.11000000,-0.40900000,0.90600000,-0.02000000,-0.17000000,-0.18000000,-0.05395190,0.01432980,0.00670528,-24.10000000,-6.26000000,0.06000000
174,0,0.11000000,-0.40500000,0.90700000,-0.02000000,-0.13000000,0.01000000,-0.05506895,0.00706897,0.00726381,-24.10000000,-6.26000000,0.06000000
175,0,0.10500000,-0.40000000,0.90500000,0.03000000,0.05000000,0.16000000,-0.05503644,0.00712316,0.00743720,-24.10000000,-6.26000000,0.06000000
176,0,0.11000000,-0.40900000,0.90800000,0.03000000,-0.01000000,-0.03000000,-0.05500473,0.00711259,0.00740549,-24.10000000,-6.26000000,0.06000000
177,0,0.11400000,-0.40800000,0.90800000,0.09000000,0.10000000,-0.18000000,-0.05490880,0.00721917,0.00721364,-24.10000000,-6.26000000,0.05000000
178,0,0.11000000,-0.40700000,0.91000000,-0.13000000,-0.18000000,0.08000000,-0.05504866,0.00702552,0.00729971,-24.10000000,-6.26000000,0.05000000
179,0,0.10500000,-0.40000000,0.90800000,0.02000000,0.15000000,0.04000000,-0.05502721,0.00718643,0.00734262,-24.10000000,-6.26000000,0.05000000
180,0,0.10900000,-0.40100000,0.90900000,0.18000000,0.23000000,-0.27000000,-0.04507620,0.01990161,-0.00758390,-24.09000000,-6.26000000,0.05000000
181,0,0.10900000,-0.39900000,0.90600000,0.07000000,-0.03000000,-0.05000000,-0.04500372,0.01987055,-0.00763567,-24.09000000,-6.26000000,0.05000000
182,0,0.11000000,-0.40000000,0.91500000,-0.14000000,0.07000000,0.00000000,-0.04514433,0.01994086,-0.00763567,-24.09000000,-6.26000000,0.05000000
183,0,0.10900000,-0.40700000,0.90600000,-0.19000000,0.10000000,-0.04000000,-0.04533207,0.02003967,-0.00767519,-24.09000000,-6.26000000,0.05000000
184,0,0.11000000,-0.40500000,0.91000000,-0.21000000,0.04000000,0.37000000,-0.04553792,0.02007888,-0.00731250,-24.09000000,-6.26000000,0.05000000
185,0,0.11400000,-0.40700000,0.90700000,0.08000000,0.03000000,0.08000000,-0.04545908,0.02010844,-0.00723366,-24.10000000,-6.27000000,0.05000000
186,0,0.11100000,-0.40700000,0.90600000,-0.03000000,0.09000000,0.09000000,-0.04715407,0.02519340,-0.00214870,-24.10000000,-6.27000000,0.05000000
187,0,0.10800000,-0.40800000,0.90700000,-0.01000000,-0.09000000,0.01000000,-0.04716454,0.02509913,-0.00213823,-24.10000000,-6.27000000,0.05000000
188,0,0.10800000,-0.40900000,0.90500000,-0.21000000,0.25000000,-0.01000000,-0.04737345,0.02534783,-0.00214817,-24.10000000,-6.27000000,0.05000000
189,0,0.10700000,-0.40900000,0.90700000,-0.09000000,0.00000000,0.04000000,-0.04746276,0.02534783,-0.00210848,-24.10000000,-6.26000000,0.05000000
190,0,0.10800000,-0.39800000,0.91200000,-0.16000000,-0.26000000,-0.17000000,-0.04762044,0.02509160,-0.00227601,-24.10000000,-6.26000000,0.05000000
191,0,0.11300000,-0.40600000,0.90500000,0.09000000,0.14000000,-0.01000000,-0.04753020,0.02523197,-0.00228604,-24.10000000,-6.27000000,0.05000000
192,0,0.11000000,-0.40800000,0.90400000,0.03000000,-0.14000000,-0.02000000,-0.04586450,0.01745868,-0.00339651,-24.10000000,-6.27000000,0.05000000
193,0,0.10900000,-0.40400000,0.90800000,-0.23000000,0.08000000,-0.05000000,-0.04610695,0.01754301,-0.00344921,-24.10000000,-6.27000000,0.05000000
194,0,0.10700000,-0.41100000,0.90500000,0.02000000,-0.06000000,-0.01000000,-0.04608689,0.01748281,-0.00345925,-24.10000000,-6.27000000,0.05000000
195,0,0.10800000,-0.40800000,0.90800000,0.24000000,-0.31000000,0.16000000,-0.04584682,0.01717273,-0.00329921,-24.10000000,-6.27000000,0.05000000
196,0,0.10800000,-0.40500000,0.90700000,0.02000000,0.06000000,-0.17000000,-0.04582546,0.01723681,-0.00348076,-24.10000000,-6.27000000,0.05000000
197,0,0.10800000,-0.40500000,0.90800000,-0.06000000,0.19000000,-0.17000000,-0.04588651,0.01743012,-0.00365373,-24.09000000,-6.27000000,0.05000000
198,0,0.10600000,-0.40700000,0.90500000,-0.22000000,-0.08000000,-0.16000000,-0.05809769,0.01298969,-0.01253459,-24.09000000,-6.27000000,0.05000000
199,0,0.11000000,-0.40800000,0.91000000,0.09000000,0.01000000,0.12000000,-0.05800402,0.01300010,-0.01240969,-24.09000000,-6.27000000,0.05000000
200,0,0.11000000,-0.40400000,0.90800000,0.10000000,0.33000000,-0.05000000,-0.05790492,0.01332712,-0.01245924,-24.09000000,-6.27000000,0.05000000
201,0,0.10800000,-0.40300000,0.90600000,-0.13000000,0.05000000,0.08000000,-0.05803344,0.01337655,-0.01238015,-24.09000000,-6.26000000,0.05000000
202,0,0.11100000,-0.40600000,0.90500000,0.05000000,0.24000000,0.01000000,-0.05798421,0.01361284,-0.01237031,-24.09000000,-6.26000000,0.05000000
203,0,0.10900000,-0.40700000,0.90700000,0.35000000,0.01000000,0.01000000,-0.05763796,0.01362273,-0.01236041,-24.09000000,-6.26000000,0.05000000
204,0,0.10700000,-0.40500000,0.91200000,-0.01000000,0.06000000,0.22000000,-0.05820285,0.01701209,0.00006724,-24.09000000,-6.26000000,0.05000000
205,0,0.11300000,-0.40400000,0.90700000,0.05000000,-0.17000000,0.14000000,-0.05815092,0.01683552,0.00021265,-24.09000000,-6.26000000,0.05000000
206,0,0.11100000,-0.40400000,0.91000000,-0.13000000,0.18000000,0.13000000,-0.05827974,0.01701389,0.00034148,-24.09000000,-6.26000000,0.05000000
207,0,0.10400000,-0.40600000,0.90300000,-0.04000000,0.09000000,-0.11000000,-0.05831921,0.01710269,0.00023294,-24.09000000,-6.26000000,0.05000000
208,0,0.11200000,-0.40700000,0.90800000,-0.11000000,-0.04000000,-0.16000000,-0.05842987,0.01706245,0.00007198,-24.09000000,-6.26000000,0.05000000
209,0,0.11200000,-0.40400000,0.90700000,0.05000000,-0.16000000,0.15000000,-0.05838008,0.01690313,0.00022134,-24.09000000,-6.26000000,0.05000000
210,0,0.11300000,-0.40400000,0.91000000,-0.13000000,-0.18000000,-0.05000000,-0.06560545,0.00689878,-0.00255764,-24.09000000,-6.26000000,0.05000000
211,0,0.11500000,-0.40100000,0.91000000,-0.01000000,-0.10000000,0.03000000,-0.06561579,0.00679536,-0.00252662,-24.09000000,-6.26000000,0.05000000
212,0,0.11400000,-0.40700000,0.90900000,-0.08000000,-0.10000000,0.07000000,-0.06569473,0.00669670,-0.00245755,-24.09000000,-6.26000000,0.05000000
213,0,0.11200000,-0.40500000,0.90900000,0.21000000,-0.16000000,-0.11000000,-0.06548587,0.00653757,-0.00256695,-24.09000000,-6.27000000,0.05000000
214,0,0.11100000,-0.40500000,0.90600000,0.16000000,0.14000000,0.11000000,-0.06532613,0.00667734,-0.00245713,-24.09000000,-6.27000000,0.05000000
215,0,0.10700000,-0.40300000,0.90400000,-0.11000000,0.11000000,0.19000000,-0.06543548,0.00678669,-0.00226826,-24.09000000,-6.27000000,0.05000000
216,0,0.11000000,-0.40700000,0.91000000,-0.16000000,-0.00000000,0.16000000,-0.07434354,0.00678669,0.00663980,-24.09000000,-6.27000000,0.05000000
217,0,0.11200000,-0.40500000,0.90700000,-0.23000000,-0.15000000,-0.04000000,-0.07459537,0.00662245,0.00659600,-24.09000000,-6.27000000,0.05000000
218,0,0.10900000,-0.40500000,0.90800000,-0.04000000,0.12000000,-0.05000000,-0.07463598,0.00674428,0.00654524,-24.09000000,-6.27000000,0.05000000
219,0,0.10700000,-0.41200000,0.91000000,0.19000000,-0.04000000,-0.04000000,-0.07444652,0.00670440,0.00650535,-24.09000000,-6.27000000,0.05000000
220,0,0.10800000,-0.40800000,0.90400000,-0.11000000,0.08000000,0.10000000,-0.07455715,0.00678486,0.00660593,-24.09000000,-6.27000000,0.05000000
221,0,0.10700000,-0.40400000,0.90600000,-0.02000000,-0.16000000,0.02000000,-0.07457711,0.00662523,0.00662588,-24.09000000,-6.27000000,0.05000000
222,0,0.10900000,-0.41100000,0.91000000,-0.02000000,0.24000000,0.16000000,-0.07570389,0.02014657,0.01564010,-24.09000000,-6.27000000,0.05000000
223,0,0.10700000,-0.41100000,0.90700000,0.02000000,0.02000000,-0.22000000,-0.07568326,0.02016719,0.01541322,-24.09000000,-6.27000000,0.05000000
224,0,0.11100000,-0.40700000,0.90500000,0.06000000,0.01000000,-0.05000000,-0.07562429,0.02017702,0.01536408,-24.09000000,-6.27000000,0.05000000
225,0,0.11200000,-0.40800000,0.90900000,-0.11000000,0.06000000,-0.03000000,-0.07573466,0.02023722,0.01533398,-24.09000000,-6.27000000,0.05000000
226,0,0.10700000,-0.40300000,0.90600000,0.18000000,0.14000000,0.12000000,-0.07555598,0.02037619,0.01545310,-24.09000000,-6.27000000,0.05000000
227,0,0.10800000,-0.40200000,0.91000000,-0.07000000,0.19000000,0.12000000,-0.07562554,0.02056498,0.01557233,-24.09000000,-6.26000000,0.05000000
228,0,0.10900000,-0.40600000,0.90700000,0.40000000,-0.17000000,0.14000000,-0.05341986,0.01112756,0.02334432,-24.09000000,-6.26000000,0.05000000
229,0,0.10800000,-0.40300000,0.91000000,0.11000000,0.07000000,0.20000000,-0.05330442,0.01120102,0.02355419,-24.09000000,-6.27000000,0.05000000
230,0,0.10400000,-0.40900000,0.91100000,-0.17000000,-0.18000000,-0.05000000,-0.05347467,0.01102076,0.02350412,-24.09000000,-6.27000000,0.05000000
231,0,0.10700000,-0.40900000,0.91000000,0.07000000,-0.22000000,0.08000000,-0.05339564,0.01077237,0.02359444,-24.09000000,-6.26000000,0.05000000
232,0,0.10700000,-0.40600000,0.91200000,0.00000000,-0.11000000,-0.00000000,-0.05339564,0.01066226,0.02359444,-24.09000000,-6.26000000,0.05000000
233,0,0.11200000,-0.40500000,0.91000000,0.05000000,0.02000000,-0.05000000,-0.05334598,0.01068213,0.02354478,-24.09000000,-6.26000000,0.05000000
234,0,0.10900000,-0.40300000,0.90700000,-0.02000000,-0.13000000,0.13000000,-0.05445635,0.00346472,0.03076219,-24.09000000,-6.26000000,0.05000000
235,0,0.10700000,-0.41000000,0.90700000,0.10000000,-0.07000000,0.24000000,-0.05435235,0.00339192,0.03101181,-24.09000000,-6.26000000,0.06000000
236,0,0.10800000,-0.40500000,0.90900000,0.06000000,0.10000000,0.14000000,-0.05429286,0.00349106,0.03115061,-24.09000000,-6.26000000,0.06000000
237,0,0.10800000,-0.41500000,0.90900000,-0.07000000,-0.15000000,-0.23000000,-0.05436239,0.00334206,0.03092214,-24.09000000,-6.26000000,0.06000000
238,0,0.11200000,-0.40000000,0.91000000,-0.01000000,-0.00000000,0.26000000,-0.05437227,0.00334206,0.03117880,-24.09000000,-6.26000000,0.06000000
239,0,0.11000000,-0.40700000,0.90800000,-0.05000000,-0.14000000,-0.05000000,-0.05442144,0.00320436,0.03112962,-24.09000000,-6.26000000,0.06000000
240,0,0.10500000,-0.40400000,0.91500000,-0.13000000,0.14000000,0.05000000,-0.06175762,0.01110485,0.03395123,-24.09000000,-6.26000000,0.06000000
241,0,0.11000000,-0.40500000,0.90800000,-0.26000000,0.02000000,-0.15000000,-0.06204013,0.01112658,0.03378824,-24.09000000,-6.26000000,0.06000000
242,0,0.10800000,-0.40900000,0.90800000,0.23000000,-0.01000000,0.12000000,-0.06180552,0.01111638,0.03391065,-24.09000000,-6.26000000,0.06000000
243,0,0.10700000,-0.40900000,0.90700000,-0.10000000,0.06000000,-0.15000000,-0.06190569,0.01117649,0.03376039,-24.09000000,-6.26000000,0.06000000
244,0,0.10600000,-0.40500000,0.90800000,-0.12000000,-0.04000000,-0.01000000,-0.06202612,0.01113634,0.03375036,-24.09000000,-6.26000000,0.06000000
245,0,0.11000000,-0.40700000,0.90800000,-0.23000000,-0.26000000,0.08000000,-0.06226040,0.01087150,0.03383185,-24.09000000,-6.26000000,0.06000000
246,0,0.10700000,-0.40500000,0.91000000,0.14000000,-0.03000000,0.07000000,-0.06210995,0.01083926,0.03390707,-24.09000000,-6.26000000,0.06000000
247,0,0.11000000,-0.40700000,0.90500000,-0.29000000,0.01000000,0.09000000,-0.07904444,0.01142321,0.03916260,-24.09000000,-6.26000000,0.06000000
248,0,0.10700000,-0.40500000,0.90900000,-0.06000000,0.16000000,0.02000000,-0.07910761,0.01159168,0.03918366,-24.09000000,-6.26000000,0.06000000
249,0,0.10800000,-0.41000000,0.90700000,0.21000000,0.03000000,0.13000000,-0.07889225,0.01162245,0.03931698,-24.09000000,-6.26000000,0.06000000
250,0,0.11100000,-0.41100000,0.90700000,0.12000000,0.11000000,0.01000000,-0.07876509,0.01173901,0.03932758,-24.09000000,-6.26000000,0.06000000
251,0,0.10500000,-0.40800000,0.90500000,-0.13000000,-0.26000000,0.38000000,-0.07891258,0.01144404,0.03975869,-24.09000000,-6.26000000,0.06000000
252,0,0.11100000,-0.40600000,0.90700000,-0.12000000,-0.15000000,-0.20000000,-0.07904677,0.01127629,0.03953503,-24.09000000,-6.26000000,0.06000000
253,0,0.10500000,-0.40400000,0.91000000,-0.18000000,-0.29000000,-0.11000000,-0.08898749,-0.00473930,0.03346015,-24.09000000,-6.26000000,0.06000000
254,0,0.10800000,-0.40500000,0.90500000,-0.05000000,0.06000000,0.11000000,-0.08904149,-0.00467449,0.03357896,-24.09000000,-6.26000000,0.06000000
255,0,0.11000000,-0.40700000,0.90700000,-0.03000000,-0.02000000,0.04000000,-0.08907198,-0.00469482,0.03361961,-24.09000000,-6.26000000,0.06000000
256,0,0.10900000,-0.40400000,0.90700000,0.12000000,0.01000000,-0.10000000,-0.08895189,-0.00468481,0.03351954,-24.09000000,-6.26000000,0.06000000
257,0,0.10800000,-0.40600000,0.90600000,0.01000000,-0.12000000,0.12000000,-0.08894192,-0.00480444,0.03363917,-24.09000000,-6.26000000,0.06000000
258,0,0.11300000,-0.40100000,0.90900000,-0.03000000,0.11000000,0.03000000,-0.08897200,-0.00469415,0.03366925,-24.09000000,-6.26000000,0.06000000
259,0,0.10600000,-0.40200000,0.90900000,0.11000000,-0.16000000,0.17000000,-0.08277509,-0.01370784,0.04324629,-24.09000000,-6.26000000,0.06000000
260,0,0.10900000,-0.40600000,0.91200000,-0.14000000,-0.17000000,0.11000000,-0.08292034,-0.01388421,0.04336042,-24.10000000,-6.26000000,0.06000000
261,0,0.10800000,-0.40600000,0.90700000,0.20000000,0.16000000,0.00000000,-0.08272233,-0.01372580,0.04336042,-24.10000000,-6.26000000,0.06000000
262,0,0.11100000,-0.40400000,0.90400000,0.15000000,0.02000000,-0.14000000,-0.08257533,-0.01370620,0.04322322,-24.10000000,-6.26000000,0.06000000
263,0,0.11000000,-0.40500000,0.90400000,-0.10000000,-0.27000000,-0.11000000,-0.08267331,-0.01397074,0.04311544,-24.10000000,-6.26000000,0.06000000
264,0,0.10900000,-0.40600000,0.90400000,0.02000000,-0.15000000,-0.03000000,-0.08265368,-0.01411792,0.04308601,-24.10000000,-6.26000000,0.06000000
265,0,0.11500000,-0.40200000,0.90600000,0.03000000,-0.25000000,0.22000000,-0.08098563,-0.02801834,0.05531838,-24.10000000,-6.26000000,0.06000000
266,0,0.10600000,-0.40500000,0.90500000,-0.13000000,0.15000000,-0.05000000,-0.08112397,-0.02785872,0.05526517,-24.10000000,-6.26000000,0.06000000
267,0,0.10800000,-0.40500000,0.90600000,0.21000000,0.28000000,0.08000000,-0.08091457,-0.02757951,0.05534494,-24.10000000,-6.26000000,0.06000000
268,0,0.11200000,-0.40400000,0.90600000,0.20000000,0.16000000,-0.16000000,-0.08071566,-0.02742039,0.05518582,-24.10000000,-6.26000000,0.06000000
269,0,0.10700000,-0.40200000,0.90600000,-0.09000000,-0.12000000,-0.15000000,-0.08081639,-0.02755469,0.05501793,-24.09000000,-6.26000000,0.06000000
270,0,0.11000000,-0.40500000,0.90800000,-0.01000000,-0.03000000,-0.06000000,-0.08082652,-0.02758507,0.05495719,-24.09000000,-6.26000000,0.06000000
271,0,0.11100000,-0.40600000,0.91000000,-0.15000000,-0.04000000,-0.03000000,-0.08913902,-0.02980173,0.05329468,-24.09000000,-6.26000000,0.06000000
272,0,0.11200000,-0.40000000,0.90500000,0.02000000,-0.06000000,0.06000000,-0.08911809,-0.02986453,0.05335748,-24.09000000,-6.26000000,0.06000000
273,0,0.10600000,-0.40100000,0.90200000,0.01000000,0.05000000,0.00000000,-0.08910808,-0.02981446,0.05335748,-24.09000000,-6.26000000,0.06000000
274,0,0.11500000,-0.40500000,0.90900000,-0.03000000,-0.10000000,0.05000000,-0.08913760,-0.02991289,0.05340669,-24.09000000,-6.26000000,0.06000000
275,0,0.10500000,-0.40200000,0.90800000,0.13000000,-0.24000000,-0.21000000,-0.08901011,-0.03014827,0.05320074,-24.09000000,-6.26000000,0.06000000
276,0,0.11100000,-0.40900000,0.90400000,0.16000000,0.11000000,-0.14000000,-0.08885262,-0.03003999,0.05306294,-24.09000000,-6.26000000,0.06000000
277,0,0.11500000,-0.40400000,0.90900000,-0.19000000,0.17000000,-0.05000000,-0.09959420,-0.02042911,0.05023621,-24.09000000,-6.26000000,0.06000000
278,0,0.10500000,-0.41100000,0.90700000,-0.12000000,0.28000000,-0.06000000,-0.09971850,-0.02013908,0.05017406,-24.09000000,-6.26000000,0.06000000
279,0,0.10700000,-0.40800000,0.91300000,0.10000000,0.04000000,0.14000000,-0.09961974,-0.02009958,0.05031233,-24.09000000,-6.26000000,0.06000000
280,0,0.10800000,-0.40600000,0.90700000,0.00000000,-0.15000000,-0.16000000,-0.09961974,-0.02024797,0.05015404,-24.09000000,-6.26000000,0.06000000
281,0,0.11300000,-0.40500000,0.91000000,-0.05000000,0.11000000,0.03000000,-0.09966894,-0.02013973,0.05018356,-24.09000000,-6.26000000,0.06000000
282,0,0.10500000,-0.40300000,0.91100000,-0.17000000,0.13000000,0.08000000,-0.09983757,-0.02001078,0.05026292,-24.09000000,-6.26000000,0.06000000
283,0,0.10700000,-0.40400000,0.90800000,0.02000000,-0.07000000,-0.09000000,-0.09872635,-0.02390003,0.04526245,-24.09000000,-6.26000000,0.06000000
284,0,0.11000000,-0.40900000,0.90600000,0.22000000,0.24000000,0.30000000,-0.09849717,-0.02365001,0.04557498,-24.09000000,-6.26000000,0.06000000
285,0,0.11300000,-0.40300000,0.90700000,-0.08000000,-0.30000000,0.10000000,-0.09857662,-0.02394794,0.04567429,-24.09000000,-6.26000000,0.06000000
286,0,0.10700000,-0.40500000,0.90500000,0.11000000,-0.11000000,0.17000000,-0.09846777,-0.02405679,0.04584251,-24.09000000,-6.26000000,0.06000000
287,0,0.10800000,-0.40500000,0.90800000,0.13000000,0.11000000,-0.14000000,-0.09833913,-0.02394794,0.04570398,-24.09000000,-6.26000000,0.06000000
288,0,0.11400000,-0.40600000,0.90300000,0.18000000,-0.21000000,-0.11000000,-0.09815779,-0.02415950,0.04559316,-24.09000000,-6.26000000,0.06000000
289,0,0.11000000,-0.40400000,0.90700000,-0.31000000,0.24000000,0.11000000,-0.11544657,-0.01077464,0.05172789,-24.09000000,-6.26000000,0.06000000
290,0,0.10900000,-0.40100000,0.90800000,0.15000000,0.06000000,0.12000000,-0.11529095,-0.01071239,0.05185238,-24.09000000,-6.26000000,0.06000000
291,0,0.11100000,-0.40700000,0.90700000,-0.20000000,0.06000000,0.03000000,-0.11554374,-0.01063655,0.05189030,-24.09000000,-6.26000000,0.06000000
292,0,0.10600000,-0.40600000,0.90600000,0.07000000,0.20000000,-0.09000000,-0.11545301,-0.01037732,0.05177365,-24.09000000,-6.26000000,0.06000000
293,0,0.11200000,-0.40400000,0.90800000,-0.19000000,-0.01000000,0.17000000,-0.11570078,-0.01039036,0.05199533,-24.09000000,-6.26000000,0.06000000
294,0,0.10500000,-0.40700000,0.90900000,0.04000000,-0.12000000,-0.03000000,-0.11564905,-0.01054553,0.05195654,-24.09000000,-6.26000000,0.06000000
295,0,0.10900000,-0.40300000,0.91300000,-0.02000000,0.10000000,0.07000000,-0.11675539,-0.00501387,0.05582870,-24.09000000,-6.26000000,0.06000000
296,0,0.10700000,-0.41100000,0.90700000,0.39000000,0.15000000,-0.02000000,-0.11617634,-0.00479116,0.05579901,-24.09000000,-6.26000000,0.06000000
297,0,0.10800000,-0.40300000,0.90900000,0.07000000,-0.09000000,0.01000000,-0.11608549,-0.00490797,0.05581198,-24.09000000,-6.26000000,0.06000000
298,0,0.10800000,-0.40700000,0.91100000,0.13000000,-0.05000000,0.21000000,-0.11591609,-0.00497312,0.05608563,-24.09000000,-6.26000000,0.06000000
299,0,0.11200000,-0.40500000,0.90900000,0.10000000,0.07000000,0.12000000,-0.11578686,-0.00488266,0.05624071,-24.09000000,-6.26000000,0.06000000
300,0,0.11200000,-0.40800000,0.90300000,0.32000000,-0.01000000,-0.08000000,-0.11535874,-0.00489603,0.05613368,-24.09000000,-6.26000000,0.06000000
301,0,0.10700000,-0.41000000,0.90700000,0.06000000,-0.01000000,-0.14000000,-0.11212897,-0.00543433,0.04859754,-24.09000000,-6.26000000,0.06000000
302,0,0.10900000,-0.40700000,0.90800000,-0.30000000,0.07000000,-0.32000000,-0.11253491,-0.00533961,0.04816454,-24.09000000,-6.26000000,0.06000000
303,0,0.10300000,-0.40400000,0.90800000,-0.24000000,-0.00000000,-0.06000000,-0.11284667,-0.00533961,0.04808660,-24.09000000,-6.26000000,0.06000000
304,0,0.10800000,-0.40400000,0.90800000,0.31000000,0.07000000,-0.10000000,-0.11243031,-0.00524559,0.04795229,-24.09000000,-6.26000000,0.06000000
305,0,0.10500000,-0.40700000,0.90500000,-0.15000000,0.04000000,-0.03000000,-0.11262905,-0.00519259,0.04791254,-24.09000000,-6.26000000,0.06000000
306,0,0.11200000,-0.40500000,0.90900000,0.06000000,-0.16000000,0.10000000,-0.11254812,-0.00540841,0.04804742,-24.09000000,-6.26000000,0.06000000
307,0,0.11100000,-0.40900000,0.90300000,-0.13000000,-0.40000000,-0.04000000,-0.11958309,-0.02705447,0.04588282,-24.09000000,-6.26000000,0.06000000
308,0,0.11000000,-0.40700000,0.90600000,-0.12000000,0.06000000,0.16000000,-0.11975214,-0.02696995,0.04610820,-24.09000000,-6.26000000,0.06000000
309,0,0.11000000,-0.40500000,0.90900000,0.11000000,0.27000000,0.18000000,-0.11960990,-0.02662083,0.04634095,-24.09000000,-6.26000000,0.06000000
310,0,0.10900000,-0.40300000,0.91100000,0.11000000,-0.12000000,0.09000000,-0.11946727,-0.02677642,0.04645765,-24.09000000,-6.26000000,0.06000000
311,0,0.10500000,-0.40800000,0.91000000,0.26000000,-0.00000000,-0.01000000,-0.11913251,-0.02677642,0.04644477,-24.08000000,-6.26000000,0.06000000
312,0,0.10600000,-0.40600000,0.90600000,-0.08000000,0.12000000,0.07000000,-0.11923965,-0.02661571,0.04653852,-24.09000000,-6.26000000,0.06000000
313,0,0.10700000,-0.40200000,0.91100000,0.07000000,0.12000000,0.07000000,-0.11540943,-0.02004962,0.05036874,-24.08000000,-6.26000000,0.05000000
314,0,0.11300000,-0.40500000,0.90600000,-0.03000000,0.04000000,-0.14000000,-0.11545085,-0.01999440,0.05017547,-24.08000000,-6.26000000,0.05000000
315,0,0.10900000,-0.40600000,0.91200000,0.00000000,0.18000000,-0.35000000,-0.11545085,-0.01975607,0.04971205,-24.08000000,-6.26000000,0.06000000
316,0,0.11200000,-0.40300000,0.90800000,-0.18000000,0.13000000,-0.30000000,-0.11568493,-0.01958701,0.04932192,-24.08000000,-6.26000000,0.06000000
317,0,0.10900000,-0.40300000,0.90900000,-0.18000000,-0.09000000,0.21000000,-0.11592763,-0.01970836,0.04960508,-24.08000000,-6.26000000,0.06000000
318,0,0.11400000,-0.40400000,0.91300000,0.10000000,0.07000000,0.09000000,-0.11579206,-0.01961346,0.04972709,-24.08000000,-6.26000000,0.06000000
319,0,0.10700000,-0.40400000,0.90400000,0.08000000,-0.27000000,-0.14000000,-0.11147438,-0.03418561,0.04217117,-24.08000000,-6.26000000,0.06000000
320,0,0.10500000,-0.41000000,0.91100000,0.17000000,-0.36000000,-0.00000000,-0.11123977,-0.03468243,0.04217117,-24.08000000,-6.26000000,0.06000000
321,0,0.10900000,-0.40900000,0.90800000,-0.05000000,0.11000000,0.04000000,-0.11130576,-0.03453726,0.04222396,-24.08000000,-6.26000000,0.06000000
322,0,0.10800000,-0.40600000,0.90800000,0.05000000,0.02000000,-0.03000000,-0.11124124,-0.03451145,0.04218524,-24.08000000,-6.26000000,0.06000000
323,0,0.11000000,-0.40700000,0.90600000,0.04000000,0.11000000,0.23000000,-0.11118902,-0.03436785,0.04248550,-24.08000000,-6.26000000,0.06000000
324,0,0.11400000,-0.40900000,0.90800000,-0.12000000,-0.07000000,-0.12000000,-0.11134410,-0.03445832,0.04233042,-24.08000000,-6.26000000,0.06000000
325,0,0.11000000,-0.40600000,0.90800000,0.16000000,-0.02000000,0.15000000,-0.10269925,-0.03553892,0.05043496,-24.08000000,-6.26000000,0.06000000
326,0,0.11300000,-0.40400000,0.90800000,0.22000000,0.01000000,-0.16000000,-0.10240020,-0.03552533,0.05021747,-24.08000000,-6.26000000,0.06000000
327,0,0.10800000,-0.40500000,0.90500000,-0.10000000,-0.03000000,-0.23000000,-0.10253177,-0.03556480,0.04991486,-24.08000000,-6.26000000,0.06000000
328,0,0.11000000,-0.41000000,0.90900000,0.08000000,-0.01000000,-0.01000000,-0.10242844,-0.03557772,0.04990194,-24.08000000,-6.26000000,0.06000000
329,0,0.10800000,-0.40700000,0.90700000,-0.17000000,-0.01000000,0.10000000,-0.10264579,-0.03559050,0.05002979,-24.08000000,-6.26000000,0.06000000
330,0,0.11100000,-0.40200000,0.90600000,-0.12000000,0.05000000,0.15000000,-0.10285846,-0.03550189,0.05029563,-24.08000000,-6.26000000,0.06000000
331,0,0.10900000,-0.40900000,0.90700000,0.09000000,-0.12000000,0.01000000,-0.09797155,-0.04201777,0.05083862,-24.08000000,-6.26000000,0.06000000
332,0,0.10800000,-0.40400000,0.90400000,-0.11000000,-0.33000000,0.08000000,-0.09812362,-0.04247398,0.05094922,-24.08000000,-6.26000000,0.06000000
333,0,0.10500000,-0.40800000,0.90900000,-0.02000000,0.10000000,0.24000000,-0.09815056,-0.04233931,0.05127242,-24.09000000,-6.26000000,0.06000000
334,0,0.10900000,-0.40900000,0.91100000,-0.00000000,-0.21000000,0.10000000,-0.09815056,-0.04261390,0.05140318,-24.08000000,-6.26000000,0.06000000
335,0,0.10900000,-0.40500000,0.90800000,0.09000000,-0.23000000,-0.28000000,-0.09803431,-0.04291097,0.05104153,-24.08000000,-6.26000000,0.06000000
336,0,0.10800000,-0.40300000,0.90600000,0.03000000,-0.13000000,-0.05000000,-0.09799502,-0.04308124,0.05097604,-24.08000000,-6.26000000,0.06000000
337,0,0.10700000,-0.40500000,0.91100000,0.11000000,-0.13000000,0.07000000,-0.09206986,-0.05008370,0.05474660,-24.08000000,-6.26000000,0.06000000
338,0,0.10700000,-0.40500000,0.90600000,0.11000000,-0.04000000,0.10000000,-0.09192435,-0.05013661,0.05487888,-24.08000000,-6.26000000,0.06000000
339,0,0.10900000,-0.40400000,0.90900000,-0.29000000,0.00000000,-0.13000000,-0.09230175,-0.05013661,0.05470970,-24.08000000,-6.26000000,0.06000000
340,0,0.11100000,-0.40600000,0.90700000,0.26000000,0.07000000,-0.12000000,-0.09196221,-0.05004519,0.05455299,-24.08000000,-6.26000000,0.06000000
341,0,0.10700000,-0.41100000,0.90800000,-0.08000000,-0.09000000,-0.08000000,-0.09206526,-0.05016112,0.05444995,-24.08000000,-6.26000000,0.06000000
342,0,0.10800000,-0.40700000,0.90500000,-0.18000000,-0.11000000,-0.12000000,-0.09229989,-0.05030451,0.05429352,-24.08000000,-6.26000000,0.06000000
343,0,0.10900000,-0.40200000,0.91000000,-0.09000000,-0.07000000,0.17000000,-0.09718343,-0.05410282,0.06351798,-24.08000000,-6.26000000,0.06000000
344,0,0.10600000,-0.40200000,0.90600000,-0.06000000,-0.18000000,-0.01000000,-0.09726851,-0.05435805,0.06350380,-24.08000000,-6.26000000,0.06000000
345,0,0.11100000,-0.40700000,0.90400000,-0.13000000,0.09000000,0.04000000,-0.09744560,-0.05423545,0.06355829,-24.09000000,-6.26000000,0.06000000
346,0,0.11200000,-0.40500000,0.90800000,0.10000000,0.03000000,0.08000000,-0.09730797,-0.05419417,0.06366839,-24.09000000,-6.26000000,0.06000000
347,0,0.11200000,-0.40400000,0.90800000,0.06000000,0.17000000,-0.06000000,-0.09722594,-0.05396174,0.06358636,-24.09000000,-6.26000000,0.06000000
348,0,0.11100000,-0.40100000,0.90500000,0.05000000,-0.12000000,-0.04000000,-0.09715798,-0.05412483,0.06353200,-24.09000000,-6.26000000,0.06000000
349,0,0.10900000,-0.40100000,0.90500000,-0.23000000,-0.07000000,-0.23000000,-0.10969122,-0.05793930,0.05099876,-24.09000000,-6.26000000,0.06000000
350,0,0.10800000,-0.40400000,0.91000000,-0.24000000,0.04000000,-0.06000000,-0.11003400,-0.05788217,0.05091307,-24.09000000,-6.26000000,0.06000000
351,0,0.11000000,-0.40700000,0.90400000,0.05000000,0.26000000,0.06000000,-0.10996566,-0.05752682,0.05099507,-24.09000000,-6.27000000,0.06000000
352,0,0.11100000,-0.41000000,0.90700000,0.05000000,0.00000000,-0.14000000,-0.10989762,-0.05752682,0.05080456,-24.09000000,-6.27000000,0.06000000
353,0,0.10800000,-0.40900000,0.90700000,0.11000000,0.04000000,-0.06000000,-0.10974736,-0.05747218,0.05072260,-24.09000000,-6.26000000,0.06000000
354,0,0.11000000,-0.40600000,0.90700000,-0.19000000,-0.07000000,0.13000000,-0.11002081,-0.05757293,0.05090970,-24.09000000,-6.26000000,0.06000000
355,0,0.10900000,-0.40600000,0.90900000,0.08000000,-0.13000000,-0.04000000,-0.10573423,-0.06453862,0.04876641,-24.09000000,-6.27000000,0.06000000
356,0,0.11100000,-0.40700000,0.90800000,-0.10000000,0.24000000,-0.16000000,-0.10587776,-0.06419413,0.04853675,-24.09000000,-6.26000000,0.06000000
357,0,0.11000000,-0.40100000,0.90800000,0.08000000,0.06000000,0.07000000,-0.10576869,-0.06411233,0.04863218,-24.09000000,-6.26000000,0.06000000
358,0,0.10500000,-0.40600000,0.90700000,-0.03000000,0.06000000,0.10000000,-0.10580925,-0.06403121,0.04876738,-24.09000000,-6.26000000,0.06000000
359,0,0.10600000,-0.40300000,0.90600000,0.13000000,-0.12000000,-0.17000000,-0.10563232,-0.06419453,0.04853601,-24.09000000,-6.26000000,0.06000000
360,0,0.10900000,-0.40800000,0.91000000,-0.07000000,0.22000000,-0.16000000,-0.10572945,-0.06388929,0.04831401,-24.09000000,-6.26000000,0.06000000
361,0,0.11200000,-0.40300000,0.90700000,0.11000000,0.10000000,0.17000000,-0.09971932,-0.05842554,0.05760239,-24.09000000,-6.27000000,0.06000000
362,0,0.10400000,-0.40600000,0.90900000,0.20000000,0.01000000,0.08000000,-0.09944912,-0.05841203,0.05771047,-24.09000000,-6.27000000,0.06000000
363,0,0.10900000,-0.40500000,0.91100000,0.11000000,0.12000000,0.05000000,-0.09930725,-0.05825726,0.05777496,-24.09000000,-6.27000000,0.06000000
364,0,0.11000000,-0.40200000,0.90900000,-0.03000000,0.12000000,-0.06000000,-0.09934831,-0.05809303,0.05769284,-24.09000000,-6.27000000,0.06000000
365,0,0.11300000,-0.40700000,0.91100000,-0.13000000,-0.16000000,0.26000000,-0.09952202,-0.05830682,0.05804025,-24.09000000,-6.27000000,0.06000000
366,0,0.10900000,-0.40700000,0.90600000,-0.13000000,-0.12000000,0.02000000,-0.09969476,-0.05846628,0.05806683,-24.09000000,-6.27000000,0.06000000
367,0,0.10600000,-0.40600000,0.91100000,-0.08000000,0.16000000,-0.09000000,-0.10424387,-0.04936806,0.05294908,-24.09000000,-6.27000000,0.06000000
368,0,0.10900000,-0.40600000,0.90900000,0.02000000,0.20000000,0.23000000,-0.10421660,-0.04909528,0.05326277,-24.09000000,-6.27000000,0.06000000
369,0,0.10900000,-0.40500000,0.91200000,0.16000000,0.05000000,-0.06000000,-0.10400948,-0.04903056,0.05318510,-24.09000000,-6.27000000,0.06000000
370,0,0.10700000,-0.40600000,0.91000000,-0.06000000,-0.10000000,0.03000000,-0.10408695,-0.04915967,0.05322383,-24.09000000,-6.27000000,0.06000000
371,0,0.10500000,-0.41100000,0.90800000,-0.15000000,-0.11000000,0.02000000,-0.10428151,-0.04930236,0.05324977,-24.09000000,-6.27000000,0.06000000
372,0,0.10800000,-0.40800000,0.90800000,0.10000000,-0.02000000,0.09000000,-0.10415218,-0.04932822,0.05336617,-24.09000000,-6.27000000,0.06000000
373,0,0.11200000,-0.40800000,0.90600000,0.05000000,0.13000000,0.24000000,-0.10408707,-0.04915892,0.05367873,-24.09000000,-6.27000000,0.06000000
374,0,0.10600000,-0.40500000,0.90400000,-0.10000000,-0.03000000,-0.11000000,-0.10949670,-0.05078181,0.04772814,-24.09000000,-6.27000000,0.06000000
375,0,0.10600000,-0.40700000,0.90500000,-0.14000000,-0.02000000,-0.23000000,-0.10970139,-0.05081105,0.04739186,-24.09000000,-6.27000000,0.06000000
376,0,0.10600000,-0.40100000,0.91100000,-0.07000000,0.21000000,0.10000000,-0.10979476,-0.05053095,0.04752524,-24.09000000,-6.27000000,0.06000000
377,0,0.10800000,-0.40800000,0.90500000,-0.06000000,-0.18000000,-0.12000000,-0.10987371,-0.05076781,0.04736733,-24.09000000,-6.27000000,0.06000000
378,0,0.11000000,-0.40300000,0.90400000,-0.15000000,0.11000000,0.04000000,-0.11009063,-0.05060874,0.04742517,-24.09000000,-6.27000000,0.06000000
379,0,0.10500000,-0.41100000,0.90800000,0.14000000,-0.12000000,-0.13000000,-0.10989342,-0.05077778,0.04724204,-24.09000000,-6.27000000,0.06000000
380,0,0.10400000,-0.40700000,0.90500000,0.08000000,-0.05000000,-0.11000000,-0.10559928,-0.05346162,0.04133760,-24.09000000,-6.27000000,0.06000000
381,0,0.10900000,-0.40700000,0.90900000,-0.23000000,0.07000000,0.14000000,-0.10592997,-0.05336098,0.04153889,-24.09000000,-6.27000000,0.06000000
382,0,0.10400000,-0.40700000,0.90400000,-0.05000000,-0.10000000,0.16000000,-0.10601317,-0.05352738,0.04180514,-24.09000000,-6.27000000,0.06000000
383,0,0.10700000,-0.40700000,0.90500000,0.22000000,0.10000000,-0.07000000,-0.10569854,-0.05338436,0.04170503,-24.09000000,-6.27000000,0.06000000
384,0,0.10700000,-0.40400000,0.90800000,0.06000000,0.35000000,0.14000000,-0.10552527,-0.05237362,0.04210932,-24.09000000,-6.27000000,0.06000000
385,0,0.11600000,-0.40300000,0.91000000,-0.11000000,-0.09000000,-0.06000000,-0.10571091,-0.05252551,0.04200806,-24.09000000,-6.27000000,0.06000000
386,0,0.11100000,-0.40700000,0.90500000,0.15000000,0.02000000,0.04000000,-0.09785903,-0.05147859,0.04410190,-24.09000000,-6.27000000,0.06000000
387,0,0.10600000,-0.40600000,0.90800000,0.13000000,0.10000000,-0.05000000,-0.09766831,-0.05133188,0.04402854,-24.09000000,-6.27000000,0.06000000
388,0,0.11100000,-0.40600000,0.90800000,-0.14000000,-0.06000000,0.10000000,-0.09786318,-0.05141540,0.04416774,-24.09000000,-6.27000000,0.06000000
389,0,0.10700000,-0.40800000,0.90500000,-0.01000000,0.10000000,-0.16000000,-0.09787824,-0.05126481,0.04392679,-24.09000000,-6.27000000,0.06000000
390,0,0.11200000,-0.40300000,0.90600000,0.00000000,0.07000000,-0.01000000,-0.09787824,-0.05116732,0.04391286,-24.09000000,-6.27000000,0.06000000
391,0,0.10900000,-0.40500000,0.90600000,-0.09000000,-0.35000000,0.12000000,-0.09800831,-0.05167312,0.04408628,-24.10000000,-6.27000000,0.06000000
392,0,0.10900000,-0.41200000,0.90600000,0.05000000,-0.09000000,-0.22000000,-0.09533190,-0.05649066,0.03231008,-24.10000000,-6.27000000,0.06000000
393,0,0.10800000,-0.40700000,0.90200000,-0.13000000,0.34000000,-0.03000000,-0.09550697,-0.05603279,0.03226968,-24.10000000,-6.27000000,0.06000000
394,0,0.11100000,-0.40500000,0.90400000,-0.06000000,-0.22000000,-0.06000000,-0.09558816,-0.05633047,0.03218850,-24.10000000,-6.27000000,0.06000000
395,0,0.11000000,-0.40400000,0.90700000,-0.09000000,-0.12000000,0.01000000,-0.09569951,-0.05647894,0.03220087,-24.10000000,-6.27000000,0.06000000
396,0,0.11300000,-0.40500000,0.90800000,0.13000000,0.06000000,0.04000000,-0.09554000,-0.05640532,0.03224995,-24.10000000,-6.27000000,0.06000000
397,0,0.10600000,-0.40500000,0.90600000,0.04000000,-0.18000000,0.20000000,-0.09549089,-0.05662631,0.03249549,-24.10000000,-6.27000000,0.06000000
398,0,0.11100000,-0.41000000,0.91000000,0.06000000,0.08000000,-0.02000000,-0.09225216,-0.05230801,0.03141592,-24.10000000,-6.27000000,0.06000000
399,0,0.10700000,-0.40600000,0.91300000,0.03000000,0.01000000,0.11000000,-0.09221324,-0.05229503,0.03155865,-24.10000000,-6.27000000,0.06000000
400,0,0.10700000,-0.41100000,0.90300000,-0.06000000,0.14000000,-0.04000000,-0.09228746,-0.05212185,0.03150917,-24.10000000,-6.27000000,0.06000000
401,0,0.10900000,-0.40200000,0.90500000,-0.24000000,-0.08000000,-0.06000000,-0.09258840,-0.05222217,0.03143393,-24.10000000,-6.27000000,0.06000000
402,0,0.10900000,-0.40700000,0.90500000,0.11000000,0.18000000,0.20000000,-0.09245260,-0.05199993,0.03168086,-24.10000000,-6.27000000,0.06000000
403,0,0.10500000,-0.40500000,0.91300000,0.10000000,0.00000000,-0.14000000,-0.09231964,-0.05199993,0.03149473,-24.10000000,-6.27000000,0.06000000
404,0,0.11000000,-0.40400000,0.90900000,0.05000000,0.09000000,0.00000000,-0.08956538,-0.04704226,0.03149473,-24.09000000,-6.27000000,0.06000000
405,0,0.10900000,-0.40900000,0.91100000,-0.01000000,0.21000000,-0.08000000,-0.08957892,-0.04675780,0.03138636,-24.09000000,-6.27000000,0.06000000
406,0,0.10700000,-0.40400000,0.90300000,-0.08000000,-0.17000000,0.18000000,-0.08968338,-0.04697977,0.03162138,-24.09000000,-6.27000000,0.06000000
407,0,0.10700000,-0.40500000,0.90700000,0.03000000,-0.02000000,0.06000000,-0.08964462,-0.04700560,0.03169890,-24.09000000,-6.27000000,0.06000000
408,0,0.10900000,-0.40900000,0.90700000,0.11000000,-0.16000000,-0.10000000,-0.08949263,-0.04722668,0.03156072,-24.09000000,-6.27000000,0.06000000
409,0,0.11000000,-0.40700000,0.90400000,-0.07000000,-0.12000000,-0.05000000,-0.08961776,-0.04744119,0.03147134,-24.09000000,-6.27000000,0.06000000
410,0,0.11100000,-0.40200000,0.91300000,0.05000000,-0.06000000,0.04000000,-0.08694520,-0.05064826,0.03360939,-24.09000000,-6.27000000,0.06000000
411,0,0.10800000,-0.40700000,0.90900000,-0.16000000,-0.13000000,-0.18000000,-0.08716464,-0.05082655,0.03336252,-24.09000000,-6.27000000,0.06000000
412,0,0.11800000,-0.40800000,0.91000000,0.20000000,-0.18000000,0.22000000,-0.08687203,-0.05108990,0.03368439,-24.09000000,-6.27000000,0.06000000
413,0,0.10700000,-0.40300000,0.91100000,-0.13000000,0.09000000,-0.14000000,-0.08705293,-0.05096466,0.03348958,-24.09000000,-6.27000000,0.06000000
414,0,0.11000000,-0.40700000,0.90900000,-0.22000000,-0.21000000,-0.08000000,-0.08736215,-0.05125983,0.03337713,-24.09000000,-6.27000000,0.06000000
415,0,0.10700000,-0.40500000,0.90700000,-0.14000000,-0.07000000,-0.10000000,-0.08763624,-0.05139687,0.03318136,-24.09000000,-6.27000000,0.06000000
416,0,0.11200000,-0.40600000,0.91200000,-0.04000000,0.06000000,0.04000000,-0.08979223,-0.04816290,0.03533734,-24.09000000,-6.27000000,0.06000000
417,0,0.11700000,-0.40200000,0.91100000,-0.02000000,-0.07000000,-0.00000000,-0.08981956,-0.04825855,0.03533734,-24.09000000,-6.27000000,0.06000000
418,0,0.10600000,-0.40500000,0.90700000,-0.03000000,0.15000000,0.07000000,-0.08985868,-0.04806295,0.03542862,-24.09000000,-6.27000000,0.06000000
419,0,0.10900000,-0.40300000,0.90700000,-0.20000000,0.10000000,-0.12000000,-0.09012053,-0.04793202,0.03527151,-24.09000000,-6.27000000,0.06000000
420,0,0.10600000,-0.40300000,0.90700000,-0.02000000,-0.10000000,0.11000000,-0.09014735,-0.04806614,0.03541905,-24.09000000,-6.27000000,0.06000000
421,0,0.10900000,-0.40500000,0.90400000,-0.03000000,0.05000000,0.24000000,-0.09018868,-0.04799727,0.03574963,-24.09000000,-6.27000000,0.06000000
422,0,0.10600000,-0.40300000,0.90500000,-0.19000000,-0.06000000,0.01000000,-0.10043934,-0.05123432,0.03628914,-24.09000000,-6.27000000,0.06000000
423,0,0.11300000,-0.40400000,0.91000000,-0.01000000,-0.00000000,-0.21000000,-0.10045362,-0.05123432,0.03598941,-24.09000000,-6.27000000,0.07000000
424,0,0.11200000,-0.40200000,0.90500000,0.24000000,-0.18000000,0.04000000,-0.10013276,-0.05147497,0.03604289,-24.09000000,-6.27000000,0.06000000
425,0,0.10800000,-0.40700000,0.90900000,-0.16000000,0.08000000,-0.22000000,-0.10036795,-0.05135737,0.03571950,-24.09000000,-6.27000000,0.07000000
426,0,0.10500000,-0.40400000,0.90500000,0.05000000,0.09000000,0.07000000,-0.10030065,-0.05123623,0.03581372,-24.09000000,-6.27000000,0.07000000
427,0,0.11100000,-0.40200000,0.91100000,-0.20000000,0.33000000,-0.10000000,-0.10058334,-0.05076980,0.03567237,-24.09000000,-6.27000000,0.07000000
428,0,0.10400000,-0.40600000,0.90200000,0.05000000,0.05000000,-0.18000000,-0.09790969,-0.04809614,0.02604722,-24.09000000,-6.27000000,0.06000000
429,0,0.11000000,-0.40300000,0.90700000,0.24000000,-0.07000000,0.03000000,-0.09758333,-0.04819133,0.02608801,-24.09000000,-6.27000000,0.06000000
430,0,0.10800000,-0.40900000,0.91200000,-0.02000000,0.03000000,-0.17000000,-0.09760917,-0.04815257,0.02586836,-24.09000000,-6.27000000,0.06000000
431,0,0.10500000,-0.40800000,0.90600000,-0.12000000,0.11000000,-0.04000000,-0.09776371,-0.04801091,0.02581684,-24.09000000,-6.27000000,0.06000000
432,0,0.11000000,-0.40400000,0.90400000,-0.11000000,0.25000000,-0.09000000,-0.09791864,-0.04765880,0.02569008,-24.09000000,-6.27000000,0.06000000
433,0,0.11100000,-0.40600000,0.90700000,0.08000000,0.03000000,0.25000000,-0.09780575,-0.04761646,0.02604285,-24.09000000,-6.27000000,0.06000000
434,0,0.10700000,-0.40800000,0.91000000,-0.09000000,-0.03000000,-0.16000000,-0.10273835,-0.04926066,0.01727380,-24.09000000,-6.27000000,0.06000000
435,0,0.10700000,-0.40500000,0.90700000,-0.14000000,0.09000000,0.01000000,-0.10292778,-0.04913888,0.01728733,-24.09000000,-6.26000000,0.06000000
436,0,0.11000000,-0.41000000,0.91000000,0.14000000,0.09000000,-0.07000000,-0.10274799,-0.04902330,0.01719743,-24.09000000,-6.26000000,0.06000000
437,0,0.11100000,-0.40500000,0.90600000,-0.09000000,0.08000000,0.02000000,-0.10286267,-0.04892136,0.01722292,-24.10000000,-6.27000000,0.06000000
438,0,0.10600000,-0.40500000,0.91000000,0.24000000,-0.09000000,0.04000000,-0.10255469,-0.04903686,0.01727425,-24.10000000,-6.27000000,0.06000000
439,0,0.10900000,-0.40400000,0.90700000,-0.10000000,-0.06000000,-0.16000000,-0.10268409,-0.04911450,0.01706721,-24.10000000,-6.27000000,0.06000000
440,0,0.11000000,-0.40200000,0.90500000,0.07000000,-0.00000000,0.09000000,-0.09890070,-0.04911450,0.02193156,-24.10000000,-6.27000000,0.06000000
441,0,0.10800000,-0.40700000,0.91100000,0.02000000,-0.15000000,0.04000000,-0.09887343,-0.04931900,0.02198610,-24.10000000,-6.27000000,0.06000000
442,0,0.10600000,-0.40400000,0.90200000,0.05000000,-0.14000000,0.01000000,-0.09880807,-0.04950200,0.02199917,-24.10000000,-6.27000000,0.06000000
443,0,0.10500000,-0.41000000,0.90600000,-0.09000000,-0.06000000,-0.33000000,-0.09892484,-0.04957984,0.02157105,-24.10000000,-6.26000000,0.06000000
444,0,0.11200000,-0.40100000,0.90800000,0.12000000,0.06000000,0.01000000,-0.09876618,-0.04950051,0.02158427,-24.10000000,-6.27000000,0.06000000
445,0,0.11000000,-0.40800000,0.90500000,0.03000000,0.12000000,0.23000000,-0.09872586,-0.04933925,0.02189335,-24.10000000,-6.27000000,0.06000000
446,0,0.11300000,-0.40700000,0.90700000,0.03000000,-0.27000000,0.08000000,-0.09710577,-0.06392009,0.02621360,-24.09000000,-6.27000000,0.06000000
447,0,0.10700000,-0.40700000,0.90700000,0.05000000,0.00000000,-0.07000000,-0.09703573,-0.06392009,0.02611554,-24.09000000,-6.27000000,0.06000000
448,0,0.10700000,-0.40300000,0.91000000,-0.06000000,-0.01000000,0.06000000,-0.09711369,-0.06393308,0.02619350,-24.09000000,-6.27000000,0.06000000
449,0,0.10800000,-0.40800000,0.91000000,0.05000000,0.00000000,0.16000000,-0.09704901,-0.06393308,0.02640046,-24.09000000,-6.27000000,0.06000000
450,0,0.10700000,-0.40800000,0.91100000,-0.07000000,0.07000000,-0.18000000,-0.09714017,-0.06384192,0.02616604,-24.09000000,-6.27000000,0.06000000
451,0,0.10600000,-0.40800000,0.90500000,-0.06000000,-0.05000000,0.35000000,-0.09722033,-0.06390872,0.02663363,-24.09000000,-6.27000000,0.06000000
452,0,0.11200000,-0.40900000,0.90600000,-0.04000000,0.00000000,-0.05000000,-0.09941411,-0.06390872,0.02389140,-24.09000000,-6.27000000,0.06000000
453,0,0.11200000,-0.40700000,0.91100000,0.14000000,0.15000000,-0.05000000,-0.09922898,-0.06371036,0.02382528,-24.09000000,-6.27000000,0.06000000
454,0,0.10800000,-0.40900000,0.90300000,-0.11000000,-0.45000000,0.04000000,-0.09936544,-0.06426863,0.02387491,-24.09000000,-6.27000000,0.06000000
455,0,0.11200000,-0.40800000,0.90600000,-0.29000000,0.07000000,-0.03000000,-0.09972681,-0.06418140,0.02383752,-24.09000000,-6.27000000,0.06000000
456,0,0.10500000,-0.40900000,0.90500000,0.07000000,-0.17000000,-0.28000000,-0.09963816,-0.06439668,0.02348295,-24.09000000,-6.27000000,0.06000000
457,0,0.11300000,-0.40600000,0.90400000,0.15000000,-0.02000000,-0.05000000,-0.09945161,-0.06442156,0.02342076,-24.09000000,-6.27000000,0.06000000
458,0,0.10300000,-0.40500000,0.90900000,0.07000000,0.16000000,-0.00000000,-0.09566063,-0.05575645,0.02342076,-24.09000000,-6.27000000,0.06000000
459,0,0.10700000,-0.40700000,0.90800000,-0.14000000,0.11000000,-0.07000000,-0.09583858,-0.05561663,0.02333179,-24.09000000,-6.27000000,0.06000000
460,0,0.11300000,-0.40400000,0.90700000,0.01000000,-0.10000000,-0.06000000,-0.09582630,-0.05573943,0.02325811,-24.09000000,-6.27000000,0.06000000
461,0,0.10800000,-0.40600000,0.90800000,-0.07000000,0.12000000,0.10000000,-0.09591375,-0.05558953,0.02338303,-24.09000000,-6.27000000,0.06000000
462,0,0.10900000,-0.40400000,0.90800000,0.01000000,-0.23000000,0.02000000,-0.09590152,-0.05587064,0.02340747,-24.09000000,-6.27000000,0.06000000
463,0,0.10600000,-0.40700000,0.90400000,-0.20000000,-0.10000000,-0.18000000,-0.09614788,-0.05599382,0.02318575,-24.09000000,-6.27000000,0.06000000
464,0,0.11100000,-0.39900000,0.90800000,0.01000000,-0.17000000,-0.21000000,-0.09560337,-0.06525050,0.01175102,-24.09000000,-6.27000000,0.06000000
465,0,0.11300000,-0.40700000,0.90200000,-0.14000000,-0.01000000,-0.11000000,-0.09580078,-0.06526461,0.01159591,-24.09000000,-6.27000000,0.06000000
466,0,0.11100000,-0.40600000,0.91500000,-0.10000000,-0.01000000,-0.01000000,-0.09593533,-0.06527806,0.01158246,-24.09000000,-6.27000000,0.06000000
467,0,0.11200000,-0.40900000,0.90900000,0.03000000,0.00000000,-0.00000000,-0.09589037,-0.06527806,0.01158246,-24.10000000,-6.27000000,0.06000000
468,0,0.10700000,-0.40800000,0.90400000,0.32000000,-0.19000000,0.12000000,-0.09545211,-0.06553828,0.01174680,-24.10000000,-6.27000000,0.06000000
469,0,0.10500000,-0.40200000,0.90600000,0.08000000,0.00000000,0.13000000,-0.09534430,-0.06553828,0.01192200,-24.10000000,-6.27000000,0.06000000
470,0,0.11200000,-0.40500000,0.90900000,0.00000000,-0.27000000,-0.08000000,-0.09534430,-0.08027194,0.00755647,-24.10000000,-6.27000000,0.06000000
471,0,0.11100000,-0.40500000,0.91000000,-0.14000000,-0.01000000,0.05000000,-0.09555343,-0.08028688,0.00763116,-24.10000000,-6.27000000,0.06000000
472,0,0.11000000,-0.40800000,0.90500000,-0.16000000,0.13000000,0.10000000,-0.09578851,-0.08009588,0.00777808,-24.10000000,-6.27000000,0.06000000
473,0,0.11000000,-0.40800000,0.90900000,-0.00000000,-0.13000000,0.13000000,-0.09578851,-0.08028434,0.00796654,-24.10000000,-6.27000000,0.06000000
474,0,0.10700000,-0.40500000,0.90700000,-0.08000000,-0.34000000,0.07000000,-0.09590412,-0.08077569,0.00806770,-24.10000000,-6.27000000,0.06000000
475,0,0.11100000,-0.40100000,0.90900000,-0.16000000,0.03000000,-0.01000000,-0.09615011,-0.08072957,0.00805233,-24.10000000,-6.27000000,0.06000000
476,0,0.10600000,-0.40700000,0.90900000,0.08000000,0.06000000,-0.10000000,-0.09189664,-0.07753946,0.00273549,-24.10000000,-6.27000000,0.06000000
477,0,0.10700000,-0.41000000,0.90700000,0.16000000,0.00000000,-0.05000000,-0.09164870,-0.07753946,0.00265801,-24.10000000,-6.27000000,0.06000000
478,0,0.11200000,-0.40800000,0.90600000,-0.04000000,-0.08000000,0.04000000,-0.09170772,-0.07765750,0.00271703,-24.10000000,-6.27000000,0.06000000
479,0,0.10800000,-0.40800000,0.90900000,-0.01000000,0.05000000,0.12000000,-0.09172225,-0.07758486,0.00289136,-24.10000000,-6.27000000,0.06000000
480,0,0.11200000,-0.40600000,0.90300000,0.09000000,-0.15000000,0.16000000,-0.09158686,-0.07781050,0.00313205,-24.10000000,-6.27000000,0.06000000
481,0,0.10700000,-0.40500000,0.90600000,-0.01000000,-0.05000000,0.07000000,-0.09160251,-0.07788873,0.00324157,-24.10000000,-6.28000000,0.06000000
482,0,0.11000000,-0.40400000,0.91000000,0.06000000,0.09000000,-0.14000000,-0.08841521,-0.07310778,-0.00419546,-24.10000000,-6.28000000,0.06000000
483,0,0.10200000,-0.40900000,0.90900000,-0.11000000,0.09000000,0.02000000,-0.08855993,-0.07298937,-0.00416915,-24.10000000,-6.27000000,0.06000000
484,0,0.11000000,-0.41100000,0.90500000,-0.03000000,0.07000000,-0.25000000,-0.08859770,-0.07290126,-0.00448383,-24.10000000,-6.28000000,0.06000000
485,0,0.11500000,-0.40700000,0.90800000,-0.06000000,0.16000000,-0.04000000,-0.08867157,-0.07270425,-0.00453308,-24.10000000,-6.28000000,0.06000000
486,0,0.11200000,-0.40700000,0.91000000,-0.15000000,-0.09000000,0.21000000,-0.08885516,-0.07281440,-0.00427606,-24.10000000,-6.28000000,0.06000000
487,0,0.11400000,-0.40700000,0.90900000,-0.23000000,-0.21000000,-0.16000000,-0.08914099,-0.07307538,-0.00447490,-24.10000000,-6.28000000,0.06000000
488,0,0.10700000,-0.40400000,0.90300000,0.06000000,-0.09000000,0.08000000,-0.08583743,-0.07803071,-0.00007015,-24.10000000,-6.28000000,0.06000000
489,0,0.10900000,-0.40700000,0.90400000,0.01000000,-0.01000000,-0.02000000,-0.08582428,-0.07804387,-0.00009646,-24.10000000,-6.28000000,0.06000000
490,0,0.11500000,-0.40700000,0.90700000,-0.20000000,-0.08000000,0.12000000,-0.08607545,-0.07814434,0.00005424,-24.10000000,-6.28000000,0.06000000
491,0,0.10800000,-0.40800000,0.90600000,-0.09000000,-0.06000000,0.01000000,-0.08618524,-0.07821753,0.00006644,-24.10000000,-6.28000000,0.06000000
492,0,0.11000000,-0.40500000,0.90600000,-0.17000000,0.04000000,0.03000000,-0.08639119,-0.07816907,0.00010279,-24.10000000,-6.28000000,0.06000000
493,0,0.10800000,-0.40100000,0.91200000,0.14000000,-0.03000000,0.32000000,-0.08620923,-0.07820806,0.00051870,-24.10000000,-6.28000000,0.06000000
494,0,0.10700000,-0.40100000,0.90600000,-0.03000000,0.00000000,0.11000000,-0.08624649,-0.07820806,0.00065530,-24.10000000,-6.28000000,0.06000000
495,0,0.10700000,-0.40700000,0.90700000,-0.16000000,-0.05000000,-0.33000000,-0.09540685,-0.08107067,-0.01823795,-24.10000000,-6.28000000,0.06000000
496,0,0.10800000,-0.40500000,0.90400000,-0.11000000,-0.07000000,-0.09000000,-0.09555365,-0.08116409,-0.01835806,-24.09000000,-6.28000000,0.06000000
497,0,0.10700000,-0.40500000,0.90900000,0.24000000,-0.08000000,0.04000000,-0.09524183,-0.08126803,-0.01830609,-24.09000000,-6.28000000,0.06000000
498,0,0.10800000,-0.40500000,0.91100000,-0.16000000,0.07000000,-0.34000000,-0.09544944,-0.08117720,-0.01874727,-24.09000000,-6.28000000,0.06000000
499,0,0.10900000,-0.40700000,0.90700000,0.30000000,-0.18000000,0.11000000,-0.09506203,-0.08140965,-0.01860522,-24.09000000,-6.28000000,0.06000000
500,0,0.10700000,-0.40400000,0.91100000,-0.17000000,0.21000000,-0.01000000,-0.09528294,-0.08113675,-0.01861821,-24.09000000,-6.28000000,0.06000000
501,0,0.11000000,-0.40100000,0.90900000,0.10000000,-0.10000000,-0.16000000,-0.08986449,-0.08655521,-0.02728774,-24.09000000,-6.28000000,0.06000000
502,0,0.10400000,-0.40600000,0.90900000,0.24000000,-0.13000000,0.05000000,-0.08952085,-0.08674134,-0.02721615,-24.09000000,-6.28000000,0.06000000
503,0,0.11000000,-0.40400000,0.90500000,0.22000000,-0.05000000,0.05000000,-0.08922086,-0.08680952,-0.02714797,-24.09000000,-6.28000000,0.06000000
504,0,0.11100000,-0.40900000,0.90500000,-0.01000000,-0.12000000,-0.10000000,-0.08923438,-0.08697178,-0.02728318,-24.09000000,-6.28000000,0.06000000
505,0,0.10700000,-0.40700000,0.90600000,-0.13000000,0.28000000,-0.07000000,-0.08941242,-0.08658830,-0.02737905,-24.09000000,-6.28000000,0.06000000
506,0,0.11000000,-0.40800000,0.91100000,0.01000000,-0.01000000,0.10000000,-0.08939864,-0.08660209,-0.02724119,-24.09000000,-6.28000000,0.06000000
507,0,0.11000000,-0.40600000,0.90900000,-0.05000000,-0.17000000,0.15000000,-0.09212617,-0.09587572,-0.01905858,-24.09000000,-6.28000000,0.06000000
508,0,0.10800000,-0.40600000,0.90700000,0.06000000,0.00000000,-0.13000000,-0.09204005,-0.09587572,-0.01924518,-24.09000000,-6.28000000,0.06000000
509,0,0.11200000,-0.40900000,0.90600000,0.19000000,0.07000000,-0.10000000,-0.09177729,-0.09577891,-0.01938347,-24.09000000,-6.28000000,0.06000000
510,0,0.10900000,-0.40500000,0.91100000,-0.25000000,0.11000000,-0.00000000,-0.09212398,-0.09562637,-0.01938347,-24.09000000,-6.28000000,0.06000000
511,0,0.10800000,-0.40300000,0.90600000,0.01000000,-0.11000000,0.05000000,-0.09211016,-0.09577841,-0.01931436,-24.09000000,-6.28000000,0.06000000
512,0,0.11000000,-0.40800000,0.90400000,0.08000000,0.13000000,0.03000000,-0.09199609,-0.09559305,-0.01927158,-24.09000000,-6.28000000,0.06000000
513,0,0.11100000,-0.40500000,0.90500000,0.04000000,0.03000000,-0.19000000,-0.08985760,-0.09398918,-0.02942944,-24.09000000,-6.28000000,0.06000000
514,0,0.11200000,-0.40300000,0.90700000,-0.21000000,0.27000000,0.37000000,-0.09034198,-0.09336641,-0.02857601,-24.09000000,-6.27000000,0.06000000
515,0,0.11100000,-0.40400000,0.91000000,0.02000000,-0.08000000,-0.10000000,-0.09031538,-0.09347277,-0.02870896,-24.09000000,-6.28000000,0.06000000
516,0,0.10900000,-0.40400000,0.90500000,0.06000000,0.25000000,0.08000000,-0.09023770,-0.09314909,-0.02860538,-24.09000000,-6.28000000,0.06000000
517,0,0.11100000,-0.40700000,0.90800000,-0.25000000,0.00000000,-0.15000000,-0.09057157,-0.09314909,-0.02880570,-24.09000000,-6.28000000,0.06000000
518,0,0.11000000,-0.41000000,0.90500000,-0.20000000,0.16000000,-0.07000000,-0.09086666,-0.09291302,-0.02890899,-24.09000000,-6.28000000,0.06000000
519,0,0.10800000,-0.40700000,0.91000000,0.06000000,-0.03000000,0.00000000,-0.08768279,-0.09450496,-0.02890899,-24.09000000,-6.28000000,0.06000000
520,0,0.11500000,-0.40100000,0.90900000,-0.19000000,0.02000000,-0.15000000,-0.08795398,-0.09447641,-0.02912308,-24.09000000,-6.28000000,0.06000000
521,0,0.10500000,-0.40700000,0.90600000,0.07000000,0.09000000,-0.15000000,-0.08786144,-0.09435744,-0.02932136,-24.09000000,-6.27000000,0.06000000
522,0,0.10200000,-0.40600000,0.90900000,0.17000000,0.10000000,0.17000000,-0.08764215,-0.09422845,-0.02910207,-24.09000000,-6.27000000,0.06000000
523,0,0.10600000,-0.40800000,0.90600000,0.39000000,-0.12000000,0.04000000,-0.08713712,-0.09438384,-0.02905027,-24.09000000,-6.27000000,0.06000000
524,0,0.10900000,-0.40600000,0.90700000,-0.03000000,0.14000000,0.16000000,-0.08717735,-0.09419610,-0.02883572,-24.09000000,-6.27000000,0.06000000
525,0,0.11100000,-0.40500000,0.90800000,-0.04000000,-0.07000000,-0.08000000,-0.08936436,-0.09802337,-0.03320973,-24.09000000,-6.27000000,0.06000000
526,0,0.10600000,-0.40500000,0.91000000,-0.05000000,0.16000000,0.28000000,-0.08943268,-0.09780473,-0.03282712,-24.09000000,-6.27000000,0.06000000
527,0,0.11100000,-0.40300000,0.90600000,0.01000000,-0.12000000,-0.12000000,-0.08941941,-0.09796402,-0.03298640,-24.09000000,-6.27000000,0.06000000
528,0,0.10900000,-0.40500000,0.90800000,0.00000000,-0.00000000,0.17000000,-0.08941941,-0.09796402,-0.03276849,-24.09000000,-6.27000000,0.06000000
529,0,0.10900000,-0.40700000,0.90800000,0.14000000,0.17000000,0.23000000,-0.08924549,-0.09775283,-0.03248277,-24.09000000,-6.27000000,0.06000000
530,0,0.11000000,-0.40600000,0.90700000,-0.00000000,-0.27000000,0.11000000,-0.08924549,-0.09808290,-0.03234830,-24.09000000,-6.27000000,0.06000000
531,0,0.11100000,-0.40600000,0.91200000,-0.13000000,-0.17000000,-0.10000000,-0.09628217,-0.10728471,-0.03776113,-24.09000000,-6.27000000,0.06000000
532,0,0.10600000,-0.40600000,0.90300000,0.00000000,-0.22000000,0.02000000,-0.09628217,-0.10759241,-0.03773315,-24.09000000,-6.27000000,0.06000000
533,0,0.10600000,-0.40400000,0.90500000,0.24000000,0.22000000,-0.12000000,-0.09595667,-0.10729404,-0.03789590,-24.09000000,-6.27000000,0.06000000
534,0,0.11000000,-0.40300000,0.90800000,-0.17000000,0.05000000,-0.05000000,-0.09618808,-0.10722598,-0.03796396,-24.09000000,-6.27000000,0.06000000
535,0,0.11200000,-0.40400000,0.90300000,-0.06000000,0.01000000,-0.02000000,-0.09626966,-0.10721239,-0.03799115,-24.09000000,-6.27000000,0.06000000
536,0,0.11100000,-0.40400000,0.90800000,0.05000000,0.00000000,-0.01000000,-0.09620196,-0.10721239,-0.03800469,-24.09000000,-6.27000000,0.06000000
537,0,0.10800000,-0.39900000,0.90500000,-0.12000000,0.06000000,0.01000000,-0.10266171,-0.10398251,-0.03746638,-24.09000000,-6.27000000,0.06000000
538,0,0.11000000,-0.40900000,0.90700000,-0.02000000,-0.13000000,0.01000000,-0.10269062,-0.10417042,-0.03745193,-24.09000000,-6.27000000,0.06000000
539,0,0.10900000,-0.40300000,0.90800000,-0.25000000,-0.33000000,0.05000000,-0.10303218,-0.10462128,-0.03738361,-24.09000000,-6.27000000,0.06000000
540,0,0.10700000,-0.40100000,0.90600000,0.14000000,0.13000000,0.17000000,-0.10284177,-0.10444447,-0.03715241,-24.09000000,-6.27000000,0.06000000
541,0,0.10700000,-0.41000000,0.90900000,-0.10000000,0.07000000,0.34000000,-0.10298063,-0.10434726,-0.03668026,-24.09000000,-6.27000000,0.06000000
542,0,0.11200000,-0.41100000,0.90800000,-0.06000000,0.23000000,-0.04000000,-0.10306487,-0.10402436,-0.03673642,-24.09000000,-6.27000000,0.06000000
543,0,0.11500000,-0.40200000,0.90700000,0.11000000,-0.04000000,-0.19000000,-0.09707570,-0.10620225,-0.04708136,-24.09000000,-6.28000000,0.06000000
544,0,0.10900000,-0.40500000,0.90800000,0.06000000,-0.06000000,-0.02000000,-0.09698674,-0.10629120,-0.04711101,-24.09000000,-6.27000000,0.06000000
545,0,0.10900000,-0.40500000,0.90500000,-0.11000000,0.01000000,0.14000000,-0.09713831,-0.10627742,-0.04691810,-24.09000000,-6.27000000,0.06000000
546,0,0.11000000,-0.41000000,0.90700000,-0.06000000,0.12000000,-0.07000000,-0.09722358,-0.10610689,-0.04701758,-24.09000000,-6.28000000,0.06000000
547,0,0.11100000,-0.40700000,0.90700000,0.06000000,-0.03000000,0.20000000,-0.09713266,-0.10615235,-0.04671453,-24.09000000,-6.28000000,0.06000000
548,0,0.10900000,-0.40700000,0.90400000,-0.21000000,0.10000000,-0.05000000,-0.09748346,-0.10598530,-0.04679805,-24.08000000,-6.28000000,0.06000000
549,0,0.10900000,-0.39800000,0.90500000,0.08000000,-0.08000000,0.19000000,-0.09323708,-0.11023168,-0.03671290,-24.09000000,-6.27000000,0.06000000
550,0,0.10800000,-0.40700000,0.90800000,0.01000000,0.24000000,0.05000000,-0.09322293,-0.10989200,-0.03664214,-24.09000000,-6.28000000,0.06000000
551,0,0.10900000,-0.40500000,0.91200000,-0.06000000,0.10000000,-0.22000000,-0.09330412,-0.10975668,-0.03693982,-24.09000000,-6.27000000,0.06000000
552,0,0.11100000,-0.40600000,0.90600000,0.09000000,-0.15000000,-0.19000000,-0.09315774,-0.11000064,-0.03724883,-24.08000000,-6.27000000,0.06000000
553,0,0.10900000,-0.40400000,0.90700000,-0.03000000,0.02000000,0.15000000,-0.09319916,-0.10997303,-0.03704175,-24.08000000,-6.27000000,0.06000000
554,0,0.10900000,-0.40500000,0.90500000,0.10000000,0.14000000,-0.01000000,-0.09306428,-0.10978419,-0.03705524,-24.08000000,-6.27000000,0.06000000
555,0,0.11600000,-0.40600000,0.90400000,0.03000000,0.12000000,0.01000000,-0.09145736,-0.10335652,-0.03651960,-24.08000000,-6.27000000,0.06000000
556,0,0.10800000,-0.40300000,0.90900000,-0.05000000,-0.13000000,-0.04000000,-0.09153237,-0.10355155,-0.03657961,-24.08000000,-6.27000000,0.06000000
557,0,0.10700000,-0.40700000,0.90400000,-0.00000000,-0.12000000,-0.17000000,-0.09153237,-0.10371827,-0.03681580,-24.08000000,-6.27000000,0.06000000
558,0,0.11100000,-0.40800000,0.90800000,0.12000000,-0.03000000,0.16000000,-0.09136619,-0.10375982,-0.03659423,-24.08000000,-6.27000000,0.06000000
559,0,0.10900000,-0.40400000,0.91000000,0.00000000,0.18000000,-0.01000000,-0.09136619,-0.10351664,-0.03660774,-24.08000000,-6.27000000,0.06000000
560,0,0.11300000,-0.40500000,0.91100000,-0.14000000,0.19000000,-0.01000000,-0.09158003,-0.10322643,-0.03662301,-24.08000000,-6.27000000,0.06000000
561,0,0.10700000,-0.40300000,0.90800000,0.14000000,-0.13000000,0.09000000,-0.08398555,-0.11027845,-0.03174084,-24.08000000,-6.27000000,0.06000000
562,0,0.10800000,-0.40800000,0.90900000,-0.20000000,-0.24000000,0.15000000,-0.08427248,-0.11062277,-0.03152564,-24.08000000,-6.27000000,0.06000000
563,0,0.11100000,-0.40300000,0.90300000,-0.09000000,0.18000000,0.06000000,-0.08442123,-0.11032526,-0.03142648,-24.08000000,-6.27000000,0.06000000
564,0,0.10800000,-0.40700000,0.90600000,0.14000000,-0.15000000,0.11000000,-0.08422739,-0.11053295,-0.03127417,-24.08000000,-6.27000000,0.06000000
565,0,0.11400000,-0.39700000,0.90600000,0.07000000,-0.00000000,0.01000000,-0.08413180,-0.11053295,-0.03126051,-24.08000000,-6.27000000,0.06000000
566,0,0.10600000,-0.40400000,0.90800000,0.02000000,0.06000000,0.07000000,-0.08410011,-0.11043787,-0.03114959,-24.08000000,-6.27000000,0.06000000
567,0,0.11000000,-0.40700000,0.91000000,0.02000000,-0.17000000,-0.04000000,-0.08303552,-0.11948688,-0.03327877,-24.08000000,-6.27000000,0.06000000
568,0,0.10700000,-0.40500000,0.90300000,0.10000000,0.11000000,-0.09000000,-0.08288686,-0.11932335,-0.03341256,-24.08000000,-6.27000000,0.06000000
569,0,0.10700000,-0.40700000,0.90600000,0.18000000,-0.21000000,-0.03000000,-0.08262085,-0.11963369,-0.03345690,-24.08000000,-6.27000000,0.06000000
570,0,0.10800000,-0.40200000,0.90400000,0.11000000,0.23000000,-0.14000000,-0.08246453,-0.11930684,-0.03365585,-24.08000000,-6.27000000,0.06000000
571,0,0.11200000,-0.40200000,0.90700000,0.01000000,0.04000000,-0.18000000,-0.08245062,-0.11925121,-0.03390619,-24.08000000,-6.27000000,0.06000000
572,0,0.10400000,-0.40600000,0.90900000,-0.01000000,-0.31000000,-0.11000000,-0.08246489,-0.11969352,-0.03406314,-24.08000000,-6.27000000,0.06000000
573,0,0.10800000,-0.40500000,0.90500000,0.01000000,-0.17000000,-0.04000000,-0.08192512,-0.12886971,-0.03622225,-24.08000000,-6.27000000,0.06000000
574,0,0.11000000,-0.40600000,0.90800000,-0.13000000,0.11000000,0.04000000,-0.08210136,-0.12872057,-0.03616802,-24.08000000,-6.27000000,0.06000000
575,0,0.11200000,-0.40700000,0.90700000,0.07000000,-0.21000000,0.05000000,-0.08200906,-0.12899747,-0.03610209,-24.08000000,-6.27000000,0.06000000
576,0,0.10800000,-0.40500000,0.90600000,-0.01000000,0.01000000,-0.10000000,-0.08202248,-0.12898405,-0.03623626,-24.08000000,-6.27000000,0.06000000
577,0,0.10700000,-0.40800000,0.90900000,0.32000000,0.25000000,-0.15000000,-0.08159246,-0.12864810,-0.03643783,-24.08000000,-6.27000000,0.06000000
578,0,0.11100000,-0.40500000,0.91100000,-0.25000000,-0.08000000,-0.05000000,-0.08192788,-0.12875543,-0.03650491,-24.08000000,-6.27000000,0.06000000
579,0,0.10800000,-0.40500000,0.90900000,-0.04000000,-0.05000000,-0.05000000,-0.08409032,-0.13145848,-0.03920797,-24.08000000,-6.27000000,0.07000000
580,0,0.11000000,-0.40500000,0.90700000,-0.22000000,-0.18000000,0.13000000,-0.08439058,-0.13170415,-0.03903054,-24.08000000,-6.27000000,0.07000000
581,0,0.11100000,-0.40500000,0.91100000,0.01000000,-0.05000000,-0.09000000,-0.08437764,-0.13176883,-0.03914696,-24.08000000,-6.27000000,0.07000000
582,0,0.10500000,-0.40400000,0.90800000,0.07000000,0.10000000,-0.15000000,-0.08428766,-0.13164028,-0.03933977,-24.08000000,-6.27000000,0.07000000
583,0,0.11400000,-0.40300000,0.90900000,-0.07000000,0.06000000,0.19000000,-0.08437757,-0.13156322,-0.03909572,-24.08000000,-6.27000000,0.07000000
584,0,0.11100000,-0.40300000,0.90700000,0.00000000,0.02000000,-0.31000000,-0.08437757,-0.13153695,-0.03950292,-24.08000000,-6.27000000,0.07000000
585,0,0.11300000,-0.41000000,0.90700000,-0.06000000,-0.14000000,-0.02000000,-0.08762559,-0.13911564,-0.04058559,-24.08000000,-6.27000000,0.07000000
586,0,0.11200000,-0.41200000,0.90800000,-0.19000000,-0.03000000,0.19000000,-0.08788571,-0.13915671,-0.04032546,-24.08000000,-6.27000000,0.07000000
587,0,0.10800000,-0.40500000,0.90600000,-0.01000000,0.07000000,-0.10000000,-0.08789841,-0.13906787,-0.04045239,-24.08000000,-6.27000000,0.07000000
588,0,0.11000000,-0.40700000,0.90600000,-0.05000000,-0.03000000,0.07000000,-0.08796019,-0.13910493,-0.04036589,-24.08000000,-6.27000000,0.07000000
589,0,0.10900000,-0.40300000,0.90900000,0.18000000,0.01000000,0.04000000,-0.08773727,-0.13909255,-0.04031636,-24.08000000,-6.27000000,0.07000000
590,0,0.10600000,-0.40300000,0.91200000,-0.07000000,-0.07000000,-0.22000000,-0.08782452,-0.13917981,-0.04059060,-24.08000000,-6.27000000,0.07000000
591,0,0.10700000,-0.40300000,0.90900000,-0.04000000,0.27000000,0.01000000,-0.08999558,-0.12452520,-0.04004783,-24.08000000,-6.27000000,0.07000000
592,0,0.11300000,-0.40300000,0.91400000,-0.10000000,0.10000000,-0.04000000,-0.09013118,-0.12438960,-0.04010207,-24.08000000,-6.27000000,0.07000000
593,0,0.11400000,-0.40600000,0.90700000,-0.15000000,-0.18000000,-0.15000000,-0.09032567,-0.12462299,-0.04029657,-24.08000000,-6.27000000,0.07000000
594,0,0.11400000,-0.40600000,0.90500000,0.09000000,-0.09000000,-0.02000000,-0.09020891,-0.12473975,-0.04032251,-24.08000000,-6.27000000,0.07000000
595,0,0.10800000,-0.40500000,0.90900000,0.14000000,-0.06000000,0.15000000,-0.09003099,-0.12481601,-0.04013188,-24.08000000,-6.27000000,0.07000000
596,0,0.10800000,-0.40700000,0.90700000,0.16000000,-0.18000000,-0.05000000,-0.08981826,-0.12505532,-0.04019836,-24.08000000,-6.27000000,0.07000000
597,0,0.11100000,-0.40200000,0.90500000,0.01000000,-0.21000000,0.02000000,-0.08927038,-0.13656079,-0.03910260,-24.08000000,-6.28000000,0.07000000
598,0,0.10600000,-0.40500000,0.90900000,0.04000000,-0.00000000,0.08000000,-0.08921655,-0.13656079,-0.03899494,-24.08000000,-6.28000000,0.07000000
599,0,0.11400000,-0.40500000,0.90400000,-0.02000000,-0.34000000,0.07000000,-0.08924253,-0.13700238,-0.03890403,-24.08000000,-6.28000000,0.07000000
600,0,0.10900000,-0.40800000,0.91200000,-0.00000000,-0.22000000,0.06000000,-0.08924253,-0.13728459,-0.03882706,-24.08000000,-6.28000000,0.07000000
601,0,0.10700000,-0.40600000,0.91000000,-0.00000000,0.00000000,0.06000000,-0.08924253,-0.13728459,-0.03872848,-24.08000000,-6.28000000,0.07000000
602,0,0.11000000,-0.40500000,0.90800000,0.26000000,-0.30000000,-0.01000000,-0.08837162,-0.13828948,-0.03876197,-24.08000000,-6.28000000,0.08000000
603,0,0.10700000,-0.40600000,0.90600000,-0.07000000,0.06000000,-0.05000000,-0.09199134,-0.13518687,-0.04134749,-24.08000000,-6.28000000,0.08000000
604,0,0.11100000,-0.40600000,0.91300000,-0.11000000,-0.14000000,0.16000000,-0.09215830,-0.13539937,-0.04110463,-24.08000000,-6.28000000,0.07000000
605,0,0.10800000,-0.40800000,0.90500000,-0.15000000,-0.19000000,-0.01000000,-0.09237404,-0.13567264,-0.04111901,-24.08000000,-6.28000000,0.07000000
606,0,0.11300000,-0.40700000,0.91200000,-0.10000000,0.18000000,-0.17000000,-0.09250735,-0.13543268,-0.04134563,-24.08000000,-6.28000000,0.07000000
607,0,0.11000000,-0.40600000,0.90600000,-0.17000000,-0.29000000,0.07000000,-0.09273049,-0.13581333,-0.04125375,-24.08000000,-6.28000000,0.08000000
608,0,0.11000000,-0.40300000,0.90400000,-0.10000000,0.13000000,0.10000000,-0.09287289,-0.13562822,-0.04111136,-24.08000000,-6.28000000,0.07000000
609,0,0.11100000,-0.40700000,0.90800000,-0.10000000,-0.06000000,-0.23000000,-0.09824025,-0.13884864,-0.05345629,-24.08000000,-6.28000000,0.08000000
610,0,0.11000000,-0.40200000,0.90700000,-0.16000000,0.13000000,0.23000000,-0.09846266,-0.13866793,-0.05313657,-24.08000000,-6.28000000,0.07000000
611,0,0.11000000,-0.41000000,0.90600000,0.07000000,0.08000000,0.06000000,-0.09837158,-0.13856384,-0.05305850,-24.08000000,-6.28000000,0.07000000
612,0,0.11000000,-0.40600000,0.91000000,0.06000000,0.25000000,0.05000000,-0.09829464,-0.13824326,-0.05299438,-24.08000000,-6.28000000,0.08000000
613,0,0.11100000,-0.40900000,0.90400000,0.25000000,0.06000000,-0.16000000,-0.09796858,-0.13816500,-0.05320307,-24.08000000,-6.28000000,0.08000000
614,0,0.10800000,-0.40500000,0.90300000,-0.16000000,-0.14000000,-0.01000000,-0.09817649,-0.13834693,-0.05321606,-24.08000000,-6.28000000,0.08000000
615,0,0.10500000,-0.40500000,0.90600000,-0.12000000,0.26000000,0.17000000,-0.10511309,-0.12331765,-0.04338922,-24.08000000,-6.28000000,0.08000000
616,0,0.11100000,-0.40900000,0.90800000,0.14000000,0.16000000,-0.02000000,-0.10491447,-0.12309066,-0.04341760,-24.08000000,-6.28000000,0.08000000
617,0,0.11100000,-0.40800000,0.90200000,0.04000000,-0.01000000,-0.15000000,-0.10486217,-0.12310373,-0.04361370,-24.08000000,-6.28000000,0.07000000
618,0,0.10900000,-0.40500000,0.90400000,0.12000000,0.03000000,0.20000000,-0.10470752,-0.12306507,-0.04335595,-24.08000000,-6.28000000,0.07000000
619,0,0.10800000,-0.40700000,0.91100000,0.14000000,0.09000000,0.06000000,-0.10452590,-0.12294831,-0.04327811,-24.08000000,-6.28000000,0.07000000
620,0,0.10900000,-0.40900000,0.90900000,0.20000000,0.01000000,-0.16000000,-0.10425766,-0.12293490,-0.04349270,-24.08000000,-6.28000000,0.07000000
621,0,0.10600000,-0.40800000,0.90500000,-0.24000000,0.10000000,0.10000000,-0.10457726,-0.12280173,-0.04335953,-24.08000000,-6.27000000,0.07000000
622,0,0.10600000,-0.40800000,0.90800000,-0.07000000,-0.17000000,-0.16000000,-0.10834380,-0.13194906,-0.05196879,-24.08000000,-6.28000000,0.07000000
623,0,0.10600000,-0.40300000,0.91400000,-0.01000000,-0.13000000,0.18000000,-0.10835781,-0.13213117,-0.05171664,-24.08000000,-6.28000000,0.08000000
624,0,0.10400000,-0.40100000,0.90700000,0.22000000,-0.00000000,0.08000000,-0.10806873,-0.13213117,-0.05161152,-24.08000000,-6.28000000,0.08000000
625,0,0.11100000,-0.40300000,0.91200000,0.04000000,0.02000000,0.19000000,-0.10801688,-0.13210524,-0.05136525,-24.08000000,-6.27000000,0.08000000
626,0,0.10500000,-0.40600000,0.90400000,-0.03000000,-0.15000000,0.00000000,-0.10805644,-0.13230306,-0.05136525,-24.08000000,-6.27000000,0.08000000
627,0,0.10600000,-0.40700000,0.91000000,-0.14000000,0.16000000,0.16000000,-0.10824154,-0.13209152,-0.05115371,-24.08000000,-6.27000000,0.08000000
628,0,0.11000000,-0.40600000,0.90900000,0.05000000,-0.12000000,-0.16000000,-0.10553663,-0.13858331,-0.05980943,-24.08000000,-6.27000000,0.08000000
629,0,0.10600000,-0.40400000,0.90800000,0.20000000,-0.08000000,0.14000000,-0.10525790,-0.13869480,-0.05961432,-24.08000000,-6.27000000,0.08000000
630,0,0.11200000,-0.40500000,0.90900000,0.18000000,0.03000000,-0.05000000,-0.10502348,-0.13865573,-0.05967943,-24.07000000,-6.27000000,0.08000000
631,0,0.11000000,-0.40700000,0.91100000,0.09000000,-0.16000000,-0.21000000,-0.10490670,-0.13886334,-0.05995192,-24.07000000,-6.27000000,0.08000000
632,0,0.11600000,-0.40500000,0.90600000,-0.05000000,-0.30000000,-0.21000000,-0.10497146,-0.13925190,-0.06022391,-24.07000000,-6.28000000,0.08000000
633,0,0.10700000,-0.40800000,0.91100000,-0.07000000,0.00000000,0.13000000,-0.10506259,-0.13925190,-0.06005467,-24.07000000,-6.28000000,0.08000000
634,0,0.10900000,-0.40600000,0.90500000,0.04000000,0.04000000,-0.20000000,-0.10287517,-0.13706448,-0.07099176,-24.07000000,-6.28000000,0.08000000
635,0,0.10600000,-0.40400000,0.90400000,-0.01000000,-0.14000000,0.09000000,-0.10288911,-0.13725970,-0.07086627,-24.07000000,-6.28000000,0.08000000
636,0,0.11200000,-0.40300000,0.90700000,-0.06000000,0.21000000,0.07000000,-0.10297160,-0.13697098,-0.07077003,-24.07000000,-6.28000000,0.08000000
637,0,0.10800000,-0.40300000,0.90200000,-0.00000000,-0.06000000,0.06000000,-0.10297160,-0.13705390,-0.07068711,-24.07000000,-6.28000000,0.08000000
638,0,0.11400000,-0.40300000,0.90600000,-0.20000000,-0.00000000,-0.07000000,-0.10325167,-0.13705390,-0.07078514,-24.07000000,-6.28000000,0.07000000
639,0,0.11000000,-0.40200000,0.91200000,-0.09000000,0.09000000,-0.04000000,-0.10338199,-0.13692358,-0.07084306,-24.07000000,-6.28000000,0.07000000
640,0,0.11000000,-0.41100000,0.91100000,-0.14000000,0.25000000,-0.05000000,-0.11088041,-0.12353355,-0.07352106,-24.07000000,-6.28000000,0.07000000
641,0,0.10700000,-0.40100000,0.91100000,-0.04000000,-0.03000000,-0.14000000,-0.11093594,-0.12357520,-0.07371544,-24.07000000,-6.28000000,0.07000000
642,0,0.11000000,-0.40600000,0.90800000,-0.11000000,0.03000000,-0.01000000,-0.11108555,-0.12353440,-0.07372904,-24.07000000,-6.28000000,0.07000000
643,0,0.11400000,-0.40600000,0.90600000,0.18000000,-0.04000000,-0.10000000,-0.11084997,-0.12358675,-0.07385992,-24.07000000,-6.28000000,0.07000000
644,0,0.11100000,-0.40500000,0.90800000,0.02000000,0.00000000,-0.23000000,-0.11082401,-0.12358675,-0.07415842,-24.07000000,-6.28000000,0.07000000
645,0,0.11200000,-0.40100000,0.90000000,-0.14000000,-0.11000000,-0.11000000,-0.11101031,-0.12373313,-0.07430480,-24.07000000,-6.28000000,0.07000000
646,0,0.11100000,-0.40600000,0.90900000,-0.02000000,-0.08000000,-0.24000000,-0.11209143,-0.12805759,-0.08727819,-24.07000000,-6.29000000,0.07000000
647,0,0.10700000,-0.40400000,0.90700000,0.20000000,0.03000000,0.10000000,-0.11181060,-0.12801547,-0.08713777,-24.07000000,-6.28000000,0.07000000
648,0,0.10900000,-0.40600000,0.90800000,0.10000000,0.08000000,0.18000000,-0.11167300,-0.12790539,-0.08689009,-24.07000000,-6.28000000,0.07000000
649,0,0.10700000,-0.40500000,0.90800000,-0.03000000,-0.22000000,-0.00000000,-0.11171390,-0.12820538,-0.08689009,-24.07000000,-6.28000000,0.07000000
650,0,0.11100000,-0.40300000,0.91000000,0.23000000,-0.17000000,0.12000000,-0.11139643,-0.12844004,-0.08672445,-24.07000000,-6.28000000,0.07000000
651,0,0.11000000,-0.40800000,0.90200000,-0.11000000,-0.17000000,-0.06000000,-0.11154905,-0.12867591,-0.08680770,-24.07000000,-6.28000000,0.07000000
652,0,0.10600000,-0.40400000,0.90500000,0.14000000,-0.10000000,0.20000000,-0.10392133,-0.13412428,-0.07591095,-24.07000000,-6.28000000,0.08000000
653,0,0.10700000,-0.40800000,0.91200000,0.12000000,-0.02000000,0.13000000,-0.10375767,-0.13415156,-0.07573365,-24.07000000,-6.28000000,0.08000000
654,0,0.11300000,-0.40600000,0.90500000,-0.17000000,0.00000000,0.25000000,-0.10398085,-0.13415156,-0.07540544,-24.07000000,-6.28000000,0.08000000
655,0,0.11000000,-0.40700000,0.90800000,-0.03000000,-0.23000000,-0.08000000,-0.10401957,-0.13444841,-0.07550869,-24.07000000,-6.28000000,0.08000000
656,0,0.11000000,-0.40200000,0.90700000,0.14000000,0.16000000,0.01000000,-0.10382859,-0.13423016,-0.07549505,-24.07000000,-6.28000000,0.08000000
657,0,0.10600000,-0.40800000,0.90700000,-0.18000000,-0.04000000,-0.08000000,-0.10407254,-0.13428437,-0.07560347,-24.07000000,-6.28000000,0.08000000
658,0,0.11000000,-0.40400000,0.90800000,-0.06000000,0.05000000,0.06000000,-0.10730157,-0.13159351,-0.07237444,-24.08000000,-6.28000000,0.08000000
659,0,0.10900000,-0.40600000,0.90700000,0.27000000,0.26000000,-0.09000000,-0.10693436,-0.13123990,-0.07249685,-24.08000000,-6.28000000,0.08000000
660,0,0.10500000,-0.40200000,0.90500000,0.05000000,-0.16000000,-0.33000000,-0.10686371,-0.13146597,-0.07296313,-24.08000000,-6.28000000,0.08000000
661,0,0.11400000,-0.41100000,0.90700000,-0.01000000,-0.06000000,-0.08000000,-0.10687689,-0.13154504,-0.07306856,-24.08000000,-6.28000000,0.08000000
662,0,0.10600000,-0.39900000,0.90600000,0.08000000,-0.19000000,-0.06000000,-0.10677240,-0.13179321,-0.07314692,-24.08000000,-6.28000000,0.08000000
663,0,0.11300000,-0.40900000,0.90800000,0.10000000,-0.14000000,0.23000000,-0.10664140,-0.13197661,-0.07284563,-24.08000000,-6.28000000,0.08000000
664,0,0.10800000,-0.40400000,0.90800000,-0.13000000,0.15000000,-0.06000000,-0.11367507,-0.12386084,-0.07609194,-24.08000000,-6.28000000,0.08000000
665,0,0.10400000,-0.40000000,0.91100000,0.10000000,0.30000000,0.03000000,-0.11353306,-0.12343480,-0.07604934,-24.08000000,-6.28000000,0.08000000
666,0,0.11000000,-0.40800000,0.90600000,-0.13000000,0.10000000,-0.09000000,-0.11371209,-0.12329708,-0.07617328,-24.08000000,-6.28000000,0.07000000
667,0,0.10900000,-0.40600000,0.90300000,0.13000000,0.04000000,0.06000000,-0.11352990,-0.12324102,-0.07608919,-24.08000000,-6.28000000,0.08000000
668,0,0.10900000,-0.40400000,0.90700000,-0.07000000,-0.13000000,0.23000000,-0.11362623,-0.12341993,-0.07577265,-24.08000000,-6.28000000,0.08000000
669,0,0.10500000,-0.40300000,0.90700000,0.03000000,-0.17000000,0.28000000,-0.11358388,-0.12365994,-0.07537736,-24.08000000,-6.28000000,0.08000000
670,0,0.10300000,-0.40500000,0.90700000,-0.15000000,0.10000000,0.02000000,-0.12173531,-0.11822565,-0.07429050,-24.08000000,-6.28000000,0.08000000
671,0,0.10500000,-0.40400000,0.91300000,0.01000000,0.10000000,0.15000000,-0.12172071,-0.11807973,-0.07407162,-24.08000000,-6.28000000,0.08000000
672,0,0.10900000,-0.41000000,0.90300000,0.05000000,0.09000000,0.07000000,-0.12165143,-0.11795501,-0.07397461,-24.08000000,-6.28000000,0.08000000
673,0,0.11200000,-0.40600000,0.90600000,0.10000000,-0.07000000,0.20000000,-0.12151511,-0.11805043,-0.07370198,-24.08000000,-6.28000000,0.08000000
674,0,0.10600000,-0.40800000,0.91000000,-0.03000000,-0.02000000,0.25000000,-0.12155630,-0.11807789,-0.07335875,-24.08000000,-6.28000000,0.08000000
675,0,0.11100000,-0.40800000,0.90900000,-0.04000000,0.07000000,0.23000000,-0.12161264,-0.11797929,-0.07303481,-24.08000000,-6.28000000,0.08000000
676,0,0.10800000,-0.40700000,0.90900000,-0.24000000,-0.04000000,0.17000000,-0.13446529,-0.12012140,-0.06393085,-24.08000000,-6.28000000,0.08000000
677,0,0.10900000,-0.40800000,0.90700000,-0.19000000,0.05000000,-0.08000000,-0.13473629,-0.12005009,-0.06404495,-24.08000000,-6.28000000,0.08000000
678,0,0.11200000,-0.40400000,0.90200000,-0.03000000,-0.13000000,-0.03000000,-0.13477752,-0.12022875,-0.06408618,-24.08000000,-6.28000000,0.08000000
679,0,0.11100000,-0.40000000,0.90300000,-0.14000000,0.10000000,0.02000000,-0.13496940,-0.12009170,-0.06405877,-24.08000000,-6.28000000,0.08000000
680,0,0.11300000,-0.40700000,0.91100000,0.07000000,0.10000000,0.26000000,-0.13487283,-0.11995374,-0.06370008,-24.08000000,-6.28000000,0.08000000
681,0,0.10800000,-0.41400000,0.90600000,-0.00000000,-0.06000000,0.09000000,-0.13487283,-0.12003656,-0.06357585,-24.08000000,-6.28000000,0.08000000
682,0,0.11200000,-0.40400000,0.90600000,0.07000000,0.01000000,0.15000000,-0.13104935,-0.11949035,-0.05538269,-24.08000000,-6.28000000,0.08000000
683,0,0.11200000,-0.40600000,0.90600000,-0.09000000,0.09000000,-0.07000000,-0.13117703,-0.11936267,-0.05548200,-24.08000000,-6.28000000,0.08000000
684,0,0.10900000,-0.40600000,0.90500000,0.10000000,0.08000000,0.29000000,-0.13103791,-0.11925136,-0.05507853,-24.08000000,-6.28000000,0.08000000
685,0,0.11000000,-0.40400000,0.91400000,0.30000000,0.36000000,0.12000000,-0.13062138,-0.11875153,-0.05491192,-24.08000000,-6.28000000,0.08000000
686,0,0.11100000,-0.40400000,0.90600000,-0.05000000,0.04000000,-0.02000000,-0.13069012,-0.11869654,-0.05493941,-24.08000000,-6.28000000,0.08000000
687,0,0.10900000,-0.40200000,0.90700000,0.00000000,-0.12000000,0.26000000,-0.13069012,-0.11886492,-0.05457458,-24.08000000,-6.28000000,0.08000000
688,0,0.10800000,-0.40500000,0.90400000,-0.02000000,0.02000000,-0.05000000,-0.13176139,-0.11779366,-0.05725276,-24.08000000,-6.28000000,0.08000000
689,0,0.11400000,-0.40800000,0.90700000,-0.07000000,0.06000000,0.10000000,-0.13186105,-0.11770823,-0.05711039,-24.08000000,-6.28000000,0.08000000
690,0,0.11400000,-0.40800000,0.90700000,0.30000000,0.04000000,0.15000000,-0.13145011,-0.11765344,-0.05690491,-24.08000000,-6.28000000,0.08000000
691,0,0.11400000,-0.40400000,0.90700000,-0.20000000,0.01000000,-0.30000000,-0.13173356,-0.11763927,-0.05733009,-24.08000000,-6.28000000,0.08000000
692,0,0.10800000,-0.40500000,0.90900000,0.03000000,0.06000000,0.10000000,-0.13169206,-0.11755628,-0.05719178,-24.08000000,-6.28000000,0.08000000
693,0,0.10900000,-0.40400000,0.90600000,0.08000000,-0.26000000,-0.15000000,-0.13157985,-0.11792099,-0.05740218,-24.08000000,-6.28000000,0.08000000
694,0,0.11000000,-0.41200000,0.91100000,-0.04000000,0.06000000,-0.05000000,-0.13372094,-0.11470934,-0.06007856,-24.08000000,-6.28000000,0.08000000
695,0,0.10900000,-0.40700000,0.90500000,0.08000000,0.25000000,0.11000000,-0.13360751,-0.11435484,-0.05992258,-24.08000000,-6.28000000,0.08000000
696,0,0.10100000,-0.40500000,0.91200000,0.18000000,-0.11000000,0.01000000,-0.13335540,-0.11450891,-0.05990857,-24.08000000,-6.28000000,0.08000000
697,0,0.10800000,-0.40700000,0.90800000,0.04000000,0.16000000,0.04000000,-0.13329941,-0.11428493,-0.05985258,-24.08000000,-6.28000000,0.08000000
698,0,0.11400000,-0.40100000,0.90900000,0.09000000,0.14000000,0.04000000,-0.13317647,-0.11409369,-0.05979794,-24.08000000,-6.28000000,0.08000000
699,0,0.11500000,-0.40000000,0.90700000,-0.00000000,-0.00000000,-0.06000000,-0.13317647,-0.11409369,-0.05988469,-24.08000000,-6.28000000,0.08000000
700,0,0.10700000,-0.40000000,0.90700000,0.02000000,-0.15000000,0.16000000,-0.13208592,-0.12227283,-0.05116027,-24.08000000,-6.28000000,0.08000000
701,0,0.11000000,-0.40600000,0.90200000,-0.07000000,0.09000000,0.06000000,-0.13218619,-0.12214391,-0.05107432,-24.08000000,-6.28000000,0.08000000
702,0,0.10700000,-0.40500000,0.90800000,0.07000000,0.00000000,-0.08000000,-0.13208925,-0.12214391,-0.05118511,-24.07000000,-6.28000000,0.08000000
703,0,0.11100000,-0.40600000,0.90900000,0.01000000,-0.03000000,-0.15000000,-0.13207544,-0.12218536,-0.05139237,-24.08000000,-6.28000000,0.08000000
704,0,0.11400000,-0.40400000,0.90300000,-0.10000000,0.02000000,0.04000000,-0.13221158,-0.12215813,-0.05133791,-24.07000000,-6.28000000,0.08000000
705,0,0.10500000,-0.40300000,0.90900000,0.32000000,0.12000000,-0.01000000,-0.13175798,-0.12198803,-0.05135208,-24.07000000,-6.28000000,0.08000000
706,0,0.11000000,-0.40400000,0.90800000,0.25000000,0.17000000,-0.09000000,-0.11836742,-0.11288244,-0.05617269,-24.07000000,-6.27000000,0.08000000
707,0,0.11000000,-0.40500000,0.90900000,0.14000000,-0.03000000,0.07000000,-0.11816736,-0.11292531,-0.05607266,-24.07000000,-6.27000000,0.08000000
708,0,0.10400000,-0.40500000,0.90900000,0.03000000,0.21000000,0.12000000,-0.11812592,-0.11263520,-0.05590688,-24.07000000,-6.27000000,0.08000000
709,0,0.10700000,-0.40800000,0.90800000,0.10000000,-0.27000000,-0.02000000,-0.11793462,-0.11315169,-0.05594514,-24.07000000,-6.27000000,0.08000000
710,0,0.11300000,-0.40700000,0.90800000,0.07000000,0.11000000,-0.18000000,-0.11783628,-0.11299715,-0.05619802,-24.07000000,-6.27000000,0.08000000
711,0,0.10900000,-0.40300000,0.90600000,0.07000000,0.24000000,-0.16000000,-0.11769941,-0.11252786,-0.05651088,-24.07000000,-6.27000000,0.08000000
712,0,0.10700000,-0.40400000,0.90600000,-0.12000000,-0.00000000,0.24000000,-0.12400214,-0.11252786,-0.04390541,-24.07000000,-6.27000000,0.08000000
713,0,0.10700000,-0.40500000,0.90800000,0.01000000,-0.03000000,0.10000000,-0.12398785,-0.11257073,-0.04376252,-24.07000000,-6.27000000,0.08000000
714,0,0.10900000,-0.40400000,0.90800000,0.08000000,-0.16000000,0.13000000,-0.12387186,-0.11280272,-0.04357403,-24.07000000,-6.27000000,0.08000000
715,0,0.10500000,-0.40600000,0.91300000,-0.18000000,-0.34000000,0.04000000,-0.12418250,-0.11338948,-0.04350500,-24.07000000,-6.28000000,0.08000000
716,0,0.11000000,-0.40300000,0.90300000,-0.02000000,0.23000000,0.01000000,-0.12421504,-0.11301520,-0.04348872,-24.07000000,-6.28000000,0.08000000
717,0,0.10900000,-0.40500000,0.90900000,-0.11000000,0.01000000,-0.04000000,-0.12450121,-0.11298919,-0.04359278,-24.07000000,-6.27000000,0.08000000
718,0,0.10800000,-0.40500000,0.90700000,-0.13000000,0.07000000,0.19000000,-0.13135752,-0.10929732,-0.03357201,-24.07000000,-6.27000000,0.08000000
719,0,0.10900000,-0.40200000,0.90700000,0.02000000,0.00000000,-0.12000000,-0.13132838,-0.10929732,-0.03374686,-24.07000000,-6.27000000,0.08000000
720,0,0.11100000,-0.40400000,0.90800000,-0.07000000,0.19000000,-0.19000000,-0.13143520,-0.10900739,-0.03403680,-24.07000000,-6.27000000,0.08000000
721,0,0.10800000,-0.40900000,0.91100000,-0.10000000,0.06000000,-0.08000000,-0.13157707,-0.10892227,-0.03415029,-24.07000000,-6.27000000,0.08000000
722,0,0.10900000,-0.40700000,0.91200000,-0.08000000,0.13000000,0.06000000,-0.13169141,-0.10873647,-0.03406454,-24.07000000,-6.27000000,0.08000000
723,0,0.10900000,-0.40400000,0.90500000,-0.08000000,-0.03000000,0.08000000,-0.13180931,-0.10878068,-0.03394664,-24.07000000,-6.27000000,0.08000000
724,0,0.10900000,-0.41200000,0.91100000,0.18000000,0.20000000,-0.06000000,-0.12223539,-0.09814300,-0.03713794,-24.07000000,-6.27000000,0.08000000
725,0,0.10500000,-0.41000000,0.91000000,0.04000000,0.05000000,0.03000000,-0.12219167,-0.09808835,-0.03710515,-24.07000000,-6.27000000,0.08000000
726,0,0.11200000,-0.40500000,0.90900000,-0.14000000,-0.10000000,-0.30000000,-0.12233084,-0.09818776,-0.03740337,-24.07000000,-6.27000000,0.07000000
727,0,0.11300000,-0.40000000,0.90700000,-0.01000000,0.16000000,0.00000000,-0.12234085,-0.09802760,-0.03740337,-24.07000000,-6.28000000,0.07000000
728,0,0.11100000,-0.40700000,0.90800000,-0.19000000,0.08000000,-0.18000000,-0.12252832,-0.09794866,-0.03758098,-24.07000000,-6.28000000,0.07000000
729,0,0.10600000,-0.40500000,0.90300000,-0.21000000,0.13000000,-0.09000000,-0.12273447,-0.09782105,-0.03766933,-24.07000000,-6.28000000,0.07000000
730,0,0.11100000,-0.40400000,0.91000000,0.06000000,-0.18000000,0.06000000,-0.11940805,-0.10780030,-0.03434291,-24.07000000,-6.28000000,0.07000000
731,0,0.11300000,-0.40700000,0.91100000,-0.16000000,0.27000000,0.07000000,-0.11957485,-0.10751883,-0.03426994,-24.07000000,-6.28000000,0.07000000
732,0,0.10800000,-0.40500000,0.90500000,-0.22000000,0.06000000,0.06000000,-0.11979265,-0.10745943,-0.03421054,-24.08000000,-6.28000000,0.07000000
733,0,0.10800000,-0.40300000,0.90700000,0.12000000,0.01000000,0.13000000,-0.11967110,-0.10744930,-0.03407886,-24.07000000,-6.28000000,0.07000000
734,0,0.11300000,-0.40200000,0.90700000,-0.19000000,-0.02000000,0.11000000,-0.11986097,-0.10746929,-0.03396893,-24.07000000,-6.28000000,0.07000000
735,0,0.10900000,-0.40400000,0.90600000,-0.08000000,-0.07000000,-0.06000000,-0.11994059,-0.10753896,-0.03402865,-24.07000000,-6.27000000,0.07000000
736,0,0.11100000,-0.40900000,0.90700000,0.07000000,0.11000000,0.17000000,-0.11598699,-0.10132615,-0.02442704,-24.07000000,-6.27000000,0.07000000
737,0,0.11300000,-0.40100000,0.90800000,0.01000000,0.16000000,0.01000000,-0.11597653,-0.10115879,-0.02441658,-24.07000000,-6.27000000,0.07000000
738,0,0.10400000,-0.40500000,0.90800000,0.00000000,-0.12000000,0.04000000,-0.11597653,-0.10128033,-0.02437607,-24.07000000,-6.27000000,0.07000000
739,0,0.11100000,-0.40000000,0.90800000,-0.01000000,-0.07000000,0.07000000,-0.11598649,-0.10135009,-0.02430632,-24.07000000,-6.27000000,0.07000000
740,0,0.11300000,-0.40700000,0.90700000,0.12000000,0.13000000,-0.16000000,-0.11586423,-0.10121763,-0.02446933,-24.07000000,-6.27000000,0.07000000
741,0,0.11000000,-0.40600000,0.90700000,0.01000000,0.03000000,-0.08000000,-0.11585421,-0.10118757,-0.02454951,-24.07000000,-6.27000000,0.07000000
742,0,0.11200000,-0.41100000,0.90500000,0.18000000,0.14000000,-0.20000000,-0.11567360,-0.10104710,-0.02475018,-24.07000000,-6.27000000,0.07000000
743,0,0.10500000,-0.40600000,0.90900000,-0.03000000,-0.03000000,0.15000000,-0.11742705,-0.10280054,-0.01598295,-24.07000000,-6.27000000,0.07000000
744,0,0.11400000,-0.40000000,0.90400000,0.14000000,0.01000000,-0.10000000,-0.11728117,-0.10279012,-0.01608715,-24.07000000,-6.27000000,0.07000000
745,0,0.11100000,-0.40100000,0.90900000,0.04000000,0.13000000,0.17000000,-0.11724099,-0.10265953,-0.01591638,-24.07000000,-6.27000000,0.07000000
746,0,0.11400000,-0.40400000,0.90600000,-0.02000000,-0.14000000,0.12000000,-0.11726091,-0.10279900,-0.01579683,-24.07000000,-6.27000000,0.07000000
747,0,0.11600000,-0.40500000,0.90300000,-0.11000000,-0.07000000,0.03000000,-0.11736981,-0.10286830,-0.01576713,-24.07000000,-6.27000000,0.07000000
748,0,0.11200000,-0.40300000,0.91100000,0.09000000,-0.24000000,0.09000000,-0.11728043,-0.10310665,-0.01567775,-24.07000000,-6.27000000,0.07000000
749,0,0.11000000,-0.40000000,0.91100000,-0.08000000,-0.07000000,0.13000000,-0.12172687,-0.10699728,-0.00845229,-24.07000000,-6.27000000,0.07000000
750,0,0.11100000,-0.40900000,0.90000000,0.23000000,-0.07000000,0.02000000,-0.12148968,-0.10706947,-0.00843166,-24.07000000,-6.27000000,0.07000000
751,0,0.11500000,-0.40400000,0.90900000,-0.11000000,0.13000000,0.18000000,-0.12160042,-0.10693860,-0.00825046,-24.07000000,-6.27000000,0.07000000
752,0,0.11100000,-0.40100000,0.91000000,-0.01000000,0.11000000,0.14000000,-0.12161038,-0.10682899,-0.00811095,-24.07000000,-6.27000000,0.07000000
753,0,0.11200000,-0.40500000,0.90300000,-0.02000000,-0.19000000,-0.12000000,-0.12163019,-0.10701714,-0.00822978,-24.07000000,-6.27000000,0.07000000
754,0,0.10500000,-0.40600000,0.90500000,-0.11000000,0.05000000,-0.05000000,-0.12174030,-0.10696709,-0.00827983,-24.07000000,-6.27000000,0.07000000
755,0,0.11000000,-0.40800000,0.90600000,0.06000000,0.22000000,0.03000000,-0.11835165,-0.09454206,-0.00658551,-24.07000000,-6.28000000,0.07000000
756,0,0.10800000,-0.40300000,0.90700000,-0.07000000,-0.25000000,-0.11000000,-0.11842456,-0.09480244,-0.00670008,-24.07000000,-6.28000000,0.07000000
757,0,0.10800000,-0.40500000,0.91000000,-0.15000000,0.14000000,-0.15000000,-0.11857367,-0.09466327,-0.00684919,-24.07000000,-6.28000000,0.07000000
758,0,0.10600000,-0.40200000,0.90500000,-0.21000000,0.08000000,-0.00000000,-0.11878347,-0.09458334,-0.00684919,-24.07000000,-6.27000000,0.07000000
759,0,0.10900000,-0.40400000,0.90500000,-0.28000000,-0.22000000,0.19000000,-0.11906041,-0.09480093,-0.00666127,-24.07000000,-6.27000000,0.07000000
760,0,0.10700000,-0.40400000,0.90800000,-0.03000000,-0.25000000,0.31000000,-0.11909044,-0.09505118,-0.00635096,-24.07000000,-6.27000000,0.07000000
761,0,0.10500000,-0.40400000,0.90800000,-0.01000000,-0.10000000,-0.14000000,-0.11964593,-0.10060603,-0.01412776,-24.07000000,-6.27000000,0.07000000
762,0,0.10600000,-0.40700000,0.90600000,-0.19000000,-0.07000000,-0.24000000,-0.11984554,-0.10067957,-0.01437989,-24.07000000,-6.28000000,0.07000000
763,0,0.10900000,-0.40500000,0.90800000,-0.05000000,0.05000000,0.08000000,-0.11989547,-0.10062964,-0.01430001,-24.07000000,-6.28000000,0.07000000
764,0,0.10800000,-0.40900000,0.90400000,-0.15000000,-0.09000000,-0.14000000,-0.12004400,-0.10071877,-0.01443864,-24.07000000,-6.28000000,0.07000000
765,0,0.10800000,-0.40600000,0.90700000,-0.21000000,0.13000000,-0.02000000,-0.12025216,-0.10058991,-0.01445847,-24.07000000,-6.28000000,0.07000000
766,0,0.11500000,-0.40700000,0.90200000,-0.02000000,-0.18000000,0.14000000,-0.12027202,-0.10076863,-0.01431946,-24.07000000,-6.28000000,0.07000000
767,0,0.10700000,-0.40200000,0.90900000,-0.04000000,0.16000000,-0.12000000,-0.12249785,-0.09186530,-0.02099696,-24.07000000,-6.28000000,0.07000000
768,0,0.11100000,-0.40800000,0.90700000,0.09000000,0.05000000,0.02000000,-0.12239896,-0.09181036,-0.02097498,-24.07000000,-6.27000000,0.07000000
769,0,0.10900000,-0.40500000,0.90800000,-0.00000000,-0.14000000,0.06000000,-0.12239896,-0.09195447,-0.02091322,-24.07000000,-6.28000000,0.07000000
770,0,0.10800000,-0.40600000,0.91300000,-0.11000000,0.16000000,-0.17000000,-0.12250865,-0.09179492,-0.02108274,-24.07000000,-6.27000000,0.07000000
771,0,0.10900000,-0.40500000,0.91000000,-0.24000000,-0.15000000,0.17000000,-0.12274774,-0.09194436,-0.02091339,-24.07000000,-6.27000000,0.07000000
772,0,0.10600000,-0.40500000,0.90800000,-0.01000000,-0.02000000,0.25000000,-0.12275781,-0.09196449,-0.02066171,-24.07000000,-6.27000000,0.07000000
773,0,0.10700000,-0.40800000,0.90600000,-0.01000000,-0.19000000,-0.26000000,-0.12332104,-0.10266580,-0.03530560,-24.07000000,-6.27000000,0.07000000
774,0,0.11000000,-0.40800000,0.90700000,0.14000000,-0.06000000,-0.00000000,-0.12317689,-0.10272758,-0.03530560,-24.07000000,-6.27000000,0.07000000
775,0,0.11000000,-0.40700000,0.91100000,-0.04000000,-0.12000000,0.09000000,-0.12321639,-0.10284606,-0.03521674,-24.07000000,-6.27000000,0.07000000
776,0,0.10500000,-0.40400000,0.90900000,-0.04000000,-0.14000000,0.06000000,-0.12325915,-0.10299571,-0.03515260,-24.07000000,-6.27000000,0.07000000
777,0,0.10700000,-0.41000000,0.90600000,0.19000000,-0.28000000,0.21000000,-0.12306832,-0.10327692,-0.03494170,-24.07000000,-6.27000000,0.07000000
778,0,0.10600000,-0.40300000,0.90800000,0.05000000,0.04000000,0.17000000,-0.12301657,-0.10323552,-0.03476573,-24.07000000,-6.28000000,0.07000000
779,0,0.10800000,-0.40600000,0.90900000,0.07000000,0.15000000,-0.09000000,-0.11913650,-0.09492109,-0.03975439,-24.07000000,-6.28000000,0.07000000
780,0,0.11000000,-0.40700000,0.90900000,-0.23000000,-0.16000000,-0.11000000,-0.11937424,-0.09508647,-0.03986809,-24.07000000,-6.27000000,0.07000000
781,0,0.11100000,-0.40400000,0.91300000,-0.04000000,0.12000000,-0.02000000,-0.11941386,-0.09496761,-0.03988790,-24.07000000,-6.27000000,0.07000000
782,0,0.10800000,-0.40700000,0.91000000,-0.32000000,0.12000000,0.32000000,-0.11972952,-0.09484924,-0.03957224,-24.07000000,-6.27000000,0.07000000
783,0,0.11100000,-0.40600000,0.91100000,-0.26000000,-0.03000000,-0.08000000,-0.11998631,-0.09487887,-0.03965125,-24.07000000,-6.27000000,0.07000000
784,0,0.11000000,-0.40300000,0.90800000,0.04000000,0.12000000,-0.24000000,-0.11994619,-0.09475852,-0.03989195,-24.07000000,-6.27000000,0.07000000
785,0,0.10900000,-0.40800000,0.90300000,0.14000000,0.01000000,0.02000000,-0.11216118,-0.09420245,-0.03877980,-24.07000000,-6.27000000,0.07000000
786,0,0.10900000,-0.41000000,0.90800000,-0.03000000,-0.06000000,-0.09000000,-0.11219362,-0.09426731,-0.03887710,-24.07000000,-6.27000000,0.07000000
787,0,0.11100000,-0.40200000,0.91000000,0.12000000,0.05000000,-0.11000000,-0.11206703,-0.09421457,-0.03899314,-24.07000000,-6.27000000,0.07000000
788,0,0.10800000,-0.40600000,0.91000000,-0.01000000,0.02000000,0.06000000,-0.11207714,-0.09419436,-0.03893252,-24.06000000,-6.27000000,0.07000000
789,0,0.11500000,-0.40700000,0.90600000,0.20000000,-0.05000000,-0.07000000,-0.11187660,-0.09424450,-0.03900271,-24.07000000,-6.28000000,0.07000000
790,0,0.11100000,-0.40800000,0.91000000,0.10000000,0.06000000,0.17000000,-0.11177725,-0.09418488,-0.03883380,-24.07000000,-6.28000000,0.07000000
791,0,0.10900000,-0.40500000,0.90600000,-0.07000000,0.11000000,0.02000000,-0.11572364,-0.08798341,-0.03770626,-24.07000000,-6.28000000,0.07000000
792,0,0.10700000,-0.40600000,0.90700000,0.21000000,-0.24000000,-0.08000000,-0.11550292,-0.08823566,-0.03779034,-24.07000000,-6.27000000,0.07000000
793,0,0.10500000,-0.40600000,0.91400000,-0.07000000,0.18000000,0.01000000,-0.11557654,-0.08804634,-0.03777982,-24.07000000,-6.27000000,0.07000000
794,0,0.11400000,-0.40300000,0.90200000,0.13000000,-0.02000000,-0.07000000,-0.11544517,-0.08806655,-0.03785056,-24.07000000,-6.27000000,0.07000000
795,0,0.11300000,-0.40800000,0.90800000,0.13000000,-0.01000000,0.07000000,-0.11531625,-0.08807647,-0.03778114,-24.07000000,-6.27000000,0.07000000
796,0,0.11000000,-0.40800000,0.90800000,0.01000000,0.16000000,0.05000000,-0.11530641,-0.08791898,-0.03773193,-24.07000000,-6.27000000,0.07000000
797,0,0.11300000,-0.40400000,0.91000000,-0.07000000,-0.05000000,0.05000000,-0.11918955,-0.09069265,-0.03495825,-24.07000000,-6.27000000,0.07000000
798,0,0.11300000,-0.40400000,0.90600000,-0.06000000,0.10000000,-0.04000000,-0.11925148,-0.09058943,-0.03499954,-24.07000000,-6.27000000,0.07000000
799,0,0.11300000,-0.40600000,0.90600000,-0.14000000,-0.06000000,0.15000000,-0.11938979,-0.09064870,-0.03485136,-24.07000000,-6.27000000,0.07000000
800,0,0.11100000,-0.40600000,0.90500000,-0.23000000,-0.14000000,0.12000000,-0.11961678,-0.09078687,-0.03473293,-24.07000000,-6.27000000,0.07000000
801,0,0.10900000,-0.40700000,0.90800000,-0.07000000,0.02000000,-0.24000000,-0.11968690,-0.09076684,-0.03497334,-24.07000000,-6.27000000,0.07000000
802,0,0.11600000,-0.39700000,0.90600000,-0.25000000,0.21000000,0.06000000,-0.11993523,-0.09055823,-0.03491374,-24.07000000,-6.27000000,0.07000000
803,0,0.10900000,-0.40700000,0.90900000,-0.07000000,0.00000000,0.04000000,-0.12382637,-0.09055823,-0.03269023,-24.07000000,-6.27000000,0.07000000
804,0,0.11200000,-0.40600000,0.90200000,0.01000000,0.08000000,0.10000000,-0.12381599,-0.09047522,-0.03258646,-24.07000000,-6.27000000,0.07000000
805,0,0.10800000,-0.40300000,0.90600000,0.04000000,0.12000000,0.24000000,-0.12377632,-0.09035619,-0.03234840,-24.07000000,-6.27000000,0.07000000
806,0,0.11400000,-0.41000000,0.90500000,0.03000000,-0.01000000,-0.15000000,-0.12374673,-0.09036605,-0.03249633,-24.07000000,-6.27000000,0.07000000
807,0,0.10800000,-0.40700000,0.90900000,-0.15000000,0.19000000,0.02000000,-0.12389752,-0.09017505,-0.03247623,-24.07000000,-6.27000000,0.07000000
808,0,0.10800000,-0.40300000,0.90700000,-0.00000000,-0.06000000,-0.20000000,-0.12389752,-0.09023818,-0.03268667,-24.07000000,-6.27000000,0.07000000
809,0,0.11000000,-0.40500000,0.90900000,0.12000000,-0.16000000,0.15000000,-0.11712507,-0.09926812,-0.02422111,-24.07000000,-6.27000000,0.07000000
810,0,0.10800000,-0.41000000,0.91200000,0.18000000,0.10000000,0.06000000,-0.11693987,-0.09916523,-0.02415937,-24.07000000,-6.27000000,0.07000000
811,0,0.10900000,-0.40600000,0.90400000,-0.02000000,0.13000000,-0.02000000,-0.11695957,-0.09903715,-0.02417908,-24.07000000,-6.27000000,0.07000000
812,0,0.10900000,-0.40800000,0.90600000,0.12000000,-0.01000000,-0.02000000,-0.11683905,-0.09904719,-0.02419917,-24.07000000,-6.27000000,0.07000000
813,0,0.11200000,-0.40600000,0.90600000,0.28000000,-0.02000000,-0.12000000,-0.11655618,-0.09906740,-0.02432040,-24.07000000,-6.27000000,0.07000000
814,0,0.10900000,-0.40500000,0.91000000,-0.25000000,-0.25000000,-0.08000000,-0.11680678,-0.09931800,-0.02440059,-24.07000000,-6.27000000,0.07000000
815,0,0.10800000,-0.40900000,0.90900000,-0.02000000,-0.21000000,-0.05000000,-0.11791863,-0.11099246,-0.02718022,-24.07000000,-6.27000000,0.07000000
816,0,0.11400000,-0.40700000,0.91000000,0.11000000,0.29000000,0.36000000,-0.11780323,-0.11068821,-0.02680253,-24.07000000,-6.27000000,0.07000000
817,0,0.11100000,-0.40300000,0.90900000,0.11000000,0.09000000,-0.25000000,-0.11769270,-0.11059777,-0.02705373,-24.07000000,-6.27000000,0.07000000
818,0,0.11000000,-0.40300000,0.90700000,0.10000000,-0.09000000,0.04000000,-0.11759205,-0.11068836,-0.02701347,-24.07000000,-6.27000000,0.07000000
819,0,0.11100000,-0.40600000,0.90600000,0.05000000,0.11000000,-0.11000000,-0.11754228,-0.11057885,-0.02712298,-24.07000000,-6.27000000,0.07000000
820,0,0.10800000,-0.40700000,0.90800000,-0.01000000,0.24000000,-0.05000000,-0.11755225,-0.11033953,-0.02717284,-24.07000000,-6.27000000,0.07000000
821,0,0.11300000,-0.40400000,0.90800000,0.25000000,-0.21000000,-0.09000000,-0.10365862,-0.12201018,-0.03217454,-24.07000000,-6.27000000,0.07000000
822,0,0.11100000,-0.40800000,0.90500000,0.08000000,0.15000000,0.06000000,-0.10357606,-0.12185538,-0.03211263,-24.07000000,-6.27000000,0.07000000
