Measurement Count,IMU_MODE,Accel_X,Accel_Y,Accel_Z,Gyro_X,Gyro_Y,Gyro_Z,X_DEL_ANG,Y_DEL_ANG,Z_DEL_ANG,ROLL,PITCH,HEADING
1,0,0.68500000,-0.02900000,0.72700000,-0.45000000,0.21000000,0.00000000,-0.00044701,0.00020860,0.00000000,-2.29000000,-43.20000000,0.02000000
2,0,0.68600000,-0.03000000,0.72700000,-0.15000000,0.07000000,0.10000000,-0.00060202,0.00028094,0.00010334,-2.32000000,-43.25000000,0.04000000
3,0,0.69100000,-0.02600000,0.72900000,0.18000000,0.01000000,-0.02000000,-0.00042051,0.00029103,0.00008317,-2.31000000,-43.32000000,0.03000000
4,0,0.68400000,-0.03000000,0.72800000,-0.35000000,-0.11000000,0.07000000,-0.00076669,0.00018223,0.00015241,-2.41000000,-43.32000000,0.10000000
5,0,0.68500000,-0.03100000,0.72600000,0.06000000,-0.15000000,0.10000000,-0.00070284,0.00002261,0.00025882,-2.37000000,-43.37000000,0.07000000
6,0,0.68700000,-0.03300000,0.72700000,-0.24000000,-0.10000000,-0.15000000,-0.00094290,-0.00007742,0.00010878,-2.38000000,-43.37000000,0.08000000
7,0,0.68600000,-0.03000000,0.72700000,-0.09000000,-0.00000000,-0.03000000,-0.00103187,-0.00007742,0.00007913,-2.38000000,-43.37000000,0.08000000
8,0,0.68500000,-0.02900000,0.72600000,0.33000000,0.09000000,0.22000000,-0.00069399,0.00001473,0.00030438,-2.38000000,-43.37000000,0.08000000
9,0,0.68400000,-0.02700000,0.72200000,-0.18000000,0.08000000,-0.21000000,-0.00087765,0.00009635,0.00009012,-2.37000000,-43.37000000,0.07000000
10,0,0.68500000,-0.02900000,0.72300000,0.08000000,-0.07000000,-0.05000000,-0.00079658,0.00002541,0.00003945,-2.38000000,-43.37000000,0.08000000
11,0,0.68600000,-0.02700000,0.72900000,-0.32000000,-0.14000000,-0.09000000,-0.00111605,-0.00011436,-0.00005041,-2.38000000,-43.36000000,0.08000000
12,0,0.68500000,-0.02700000,0.72400000,-0.20000000,0.12000000,-0.10000000,-0.00132078,0.00000848,-0.00015277,-2.37000000,-43.37000000,0.07000000
13,0,0.68700000,-0.02700000,0.72300000,-0.05000000,-0.21000000,-0.10000000,-0.00137278,-0.00020994,-0.00025678,-2.38000000,-43.37000000,0.07000000
14,0,0.68800000,-0.02700000,0.72200000,0.07000000,0.16000000,-0.01000000,-0.00129302,-0.00002762,-0.00026817,-2.36000000,-43.37000000,0.06000000
15,0,0.69000000,-0.02400000,0.71900000,-0.12000000,-0.00000000,0.03000000,-0.00142212,-0.00002762,-0.00023590,-2.36000000,-43.39000000,0.06000000
16,0,0.69100000,-0.03000000,0.72900000,0.09000000,0.03000000,-0.26000000,-0.00131015,0.00000971,-0.00055938,-2.33000000,-43.38000000,0.04000000
17,0,0.68700000,-0.03500000,0.73000000,0.05000000,0.16000000,0.01000000,-0.00125346,0.00019111,-0.00054804,-2.33000000,-43.39000000,0.04000000
18,0,0.69100000,-0.03000000,0.72700000,-0.03000000,-0.12000000,-0.16000000,-0.00129096,0.00004110,-0.00074806,-2.33000000,-43.39000000,0.04000000
19,0,0.68800000,-0.02900000,0.72800000,-0.13000000,-0.03000000,0.13000000,-0.00144300,0.00000601,-0.00059602,-2.32000000,-43.39000000,0.03000000
20,0,0.68800000,-0.02700000,0.72400000,0.05000000,0.16000000,-0.30000000,-0.00138866,0.00017990,-0.00092207,-2.31000000,-43.39000000,0.03000000
21,0,0.69500000,-0.03100000,0.72700000,0.19000000,0.08000000,0.03000000,-0.00119797,0.00026019,-0.00089196,-2.30000000,-43.40000000,0.02000000
22,0,0.68400000,-0.03300000,0.72100000,0.10000000,-0.21000000,-0.11000000,-0.00109161,0.00003681,-0.00100897,-2.30000000,-43.40000000,0.02000000
23,0,0.68900000,-0.03100000,0.73000000,-0.03000000,0.02000000,0.08000000,-0.00112250,0.00005741,-0.00092658,-2.30000000,-43.40000000,0.02000000
24,0,0.68500000,-0.03200000,0.72700000,0.10000000,0.26000000,-0.14000000,-0.00102221,0.00031816,-0.00106698,-2.31000000,-43.39000000,0.03000000
25,0,0.68500000,-0.03200000,0.72300000,-0.04000000,0.03000000,-0.06000000,-0.00106254,0.00034841,-0.00112747,-2.31000000,-43.39000000,0.03000000
26,0,0.68700000,-0.03300000,0.72600000,0.11000000,-0.00000000,0.01000000,-0.00094708,0.00034841,-0.00111698,-2.32000000,-43.39000000,0.03000000
27,0,0.69000000,-0.02900000,0.72900000,-0.14000000,-0.09000000,0.09000000,-0.00110744,0.00024532,-0.00101388,-2.32000000,-43.39000000,0.04000000
28,0,0.68600000,-0.03000000,0.72700000,0.06000000,0.04000000,-0.05000000,-0.00002051,0.00096994,-0.00191966,-2.33000000,-43.38000000,0.04000000
29,0,0.68300000,-0.02800000,0.72500000,-0.19000000,-0.14000000,-0.02000000,-0.00033314,0.00073958,-0.00195257,-2.33000000,-43.38000000,0.04000000
30,0,0.69200000,-0.03200000,0.72900000,-0.01000000,-0.03000000,-0.17000000,-0.00034780,0.00069560,-0.00220178,-2.33000000,-43.39000000,0.04000000
31,0,0.68600000,-0.03200000,0.72300000,0.11000000,0.10000000,0.07000000,-0.00020905,0.00082174,-0.00211348,-2.33000000,-43.38000000,0.04000000
32,0,0.69000000,-0.03100000,0.72800000,-0.08000000,0.10000000,-0.29000000,-0.00029638,0.00093090,-0.00243004,-2.33000000,-43.38000000,0.04000000
33,0,0.69000000,-0.03000000,0.72400000,-0.08000000,0.12000000,0.17000000,-0.00038738,0.00106741,-0.00223665,-2.33000000,-43.38000000,0.04000000
34,0,0.68300000,-0.03000000,0.72500000,-0.00000000,0.25000000,0.09000000,-0.00038738,0.00136015,-0.00213126,-2.33000000,-43.38000000,0.04000000
35,0,0.68500000,-0.02800000,0.72800000,0.03000000,-0.13000000,0.15000000,0.00123818,-0.00568396,0.00599656,-2.33000000,-43.37000000,0.04000000
36,0,0.68400000,-0.03400000,0.72100000,-0.23000000,0.17000000,0.36000000,0.00100000,-0.00550792,0.00636936,-2.33000000,-43.37000000,0.04000000
37,0,0.68500000,-0.03100000,0.72400000,0.23000000,-0.07000000,-0.17000000,0.00124213,-0.00558161,0.00619040,-2.33000000,-43.37000000,0.04000000
38,0,0.68900000,-0.03000000,0.72400000,-0.13000000,0.03000000,-0.08000000,0.00109731,-0.00554819,0.00610128,-2.33000000,-43.37000000,0.04000000
39,0,0.68700000,-0.02500000,0.72200000,-0.02000000,0.08000000,0.14000000,0.00107634,-0.00546430,0.00624809,-2.33000000,-43.38000000,0.04000000
40,0,0.69000000,-0.02900000,0.72200000,0.20000000,-0.05000000,-0.19000000,0.00127968,-0.00551513,0.00605492,-2.33000000,-43.38000000,0.04000000
41,0,0.68800000,-0.02600000,0.72600000,-0.08000000,-0.25000000,0.01000000,-0.00314337,-0.01933718,0.00660780,-2.33000000,-43.38000000,0.05000000
42,0,0.68600000,-0.03300000,0.72300000,0.11000000,0.24000000,-0.45000000,-0.00302752,-0.01908441,0.00613386,-2.33000000,-43.38000000,0.05000000
43,0,0.68000000,-0.02800000,0.72400000,-0.28000000,0.24000000,-0.16000000,-0.00330753,-0.01884440,0.00597385,-2.34000000,-43.38000000,0.05000000
44,0,0.68800000,-0.03500000,0.72800000,-0.06000000,0.01000000,0.04000000,-0.00336720,-0.01883446,0.00601364,-2.35000000,-43.38000000,0.06000000
45,0,0.68700000,-0.03000000,0.72400000,0.23000000,-0.01000000,0.01000000,-0.00313797,-0.01884442,0.00602360,-2.35000000,-43.38000000,0.06000000
46,0,0.68900000,-0.02900000,0.72500000,-0.04000000,0.13000000,0.08000000,-0.00317818,-0.01871374,0.00610402,-2.35000000,-43.38000000,0.06000000
47,0,0.68700000,-0.03000000,0.72600000,0.16000000,-0.06000000,-0.07000000,0.00575960,-0.02206540,0.00219375,-2.36000000,-43.39000000,0.06000000
48,0,0.68900000,-0.03400000,0.72500000,0.16000000,-0.18000000,-0.16000000,0.00593078,-0.02225798,0.00202257,-2.36000000,-43.39000000,0.06000000
49,0,0.68100000,-0.02800000,0.72900000,0.03000000,0.15000000,-0.01000000,0.00596080,-0.02210787,0.00201256,-2.36000000,-43.39000000,0.06000000
50,0,0.68800000,-0.03600000,0.72700000,-0.08000000,0.15000000,0.04000000,0.00588147,-0.02195912,0.00205223,-2.36000000,-43.39000000,0.06000000
51,0,0.68700000,-0.03000000,0.72700000,-0.04000000,-0.16000000,0.02000000,0.00584124,-0.02212004,0.00207234,-2.36000000,-43.39000000,0.06000000
52,0,0.68700000,-0.02500000,0.72300000,0.09000000,0.24000000,-0.20000000,0.00593133,-0.02187980,0.00187214,-2.36000000,-43.39000000,0.06000000
53,0,0.68400000,-0.03300000,0.72600000,-0.02000000,0.01000000,0.05000000,0.00480869,-0.02131848,0.00467874,-2.36000000,-43.39000000,0.06000000
54,0,0.68700000,-0.02800000,0.72100000,0.36000000,-0.01000000,0.11000000,0.00518192,-0.02132885,0.00479278,-2.36000000,-43.39000000,0.06000000
55,0,0.68800000,-0.02300000,0.72500000,-0.01000000,-0.15000000,-0.12000000,0.00517205,-0.02147692,0.00467432,-2.36000000,-43.39000000,0.06000000
56,0,0.68900000,-0.02900000,0.72600000,-0.26000000,-0.03000000,0.01000000,0.00491427,-0.02150667,0.00468424,-2.36000000,-43.39000000,0.06000000
57,0,0.68600000,-0.03300000,0.73100000,0.02000000,0.01000000,-0.12000000,0.00493432,-0.02149664,0.00456395,-2.36000000,-43.38000000,0.06000000
58,0,0.69000000,-0.03100000,0.72900000,0.13000000,-0.14000000,0.08000000,0.00506373,-0.02163601,0.00464359,-2.36000000,-43.39000000,0.06000000
59,0,0.69400000,-0.02800000,0.72400000,-0.03000000,0.18000000,-0.18000000,0.00339618,-0.01163071,-0.00536171,-2.36000000,-43.39000000,0.06000000
60,0,0.68700000,-0.03600000,0.72800000,0.17000000,0.21000000,-0.06000000,0.00357162,-0.01141400,-0.00542363,-2.36000000,-43.39000000,0.06000000
61,0,0.68300000,-0.03200000,0.72800000,0.23000000,-0.27000000,-0.05000000,0.00379823,-0.01168001,-0.00547289,-2.36000000,-43.39000000,0.06000000
62,0,0.68500000,-0.03100000,0.72900000,-0.17000000,-0.20000000,0.01000000,0.00363126,-0.01187644,-0.00546307,-2.36000000,-43.39000000,0.06000000
63,0,0.68700000,-0.03100000,0.72700000,0.02000000,0.06000000,0.08000000,0.00365128,-0.01181638,-0.00538299,-2.36000000,-43.39000000,0.06000000
64,0,0.68600000,-0.02800000,0.72800000,-0.30000000,0.36000000,0.04000000,0.00335285,-0.01145826,-0.00534320,-2.36000000,-43.38000000,0.06000000
65,0,0.69100000,-0.03200000,0.72300000,-0.06000000,-0.01000000,-0.13000000,-0.00004148,-0.01202398,-0.01269757,-2.36000000,-43.38000000,0.06000000
66,0,0.69000000,-0.03300000,0.72300000,0.05000000,-0.03000000,0.19000000,0.00001048,-0.01205516,-0.01250014,-2.36000000,-43.38000000,0.06000000
67,0,0.68400000,-0.02900000,0.72400000,-0.01000000,0.09000000,0.14000000,0.00000059,-0.01196620,-0.01236177,-2.36000000,-43.39000000,0.07000000
68,0,0.68900000,-0.02600000,0.72600000,0.03000000,0.23000000,-0.02000000,0.00003115,-0.01173192,-0.01238214,-2.36000000,-43.38000000,0.06000000
69,0,0.68700000,-0.02300000,0.72900000,-0.08000000,-0.07000000,0.09000000,-0.00004877,-0.01180186,-0.01229222,-2.36000000,-43.38000000,0.06000000
70,0,0.68900000,-0.03000000,0.72800000,-0.02000000,-0.17000000,-0.16000000,-0.00006857,-0.01197016,-0.01245062,-2.35000000,-43.38000000,0.06000000
71,0,0.69000000,-0.03000000,0.72500000,0.06000000,-0.06000000,0.11000000,0.00326042,-0.01529915,-0.00634747,-2.35000000,-43.39000000,0.06000000
72,0,0.68400000,-0.02900000,0.72500000,0.14000000,-0.13000000,0.01000000,0.00340613,-0.01543446,-0.00633706,-2.35000000,-43.39000000,0.06000000
73,0,0.69000000,-0.02500000,0.72400000,0.20000000,-0.06000000,-0.22000000,0.00360614,-0.01549446,-0.00655707,-2.35000000,-43.39000000,0.06000000
74,0,0.68900000,-0.02700000,0.72700000,-0.02000000,0.02000000,0.06000000,0.00358603,-0.01547435,-0.00649675,-2.35000000,-43.39000000,0.06000000
75,0,0.69200000,-0.02600000,0.72700000,-0.09000000,0.48000000,-0.16000000,0.00349626,-0.01499560,-0.00665634,-2.35000000,-43.39000000,0.06000000
76,0,0.69100000,-0.03200000,0.72800000,0.09000000,-0.06000000,-0.06000000,0.00358539,-0.01505501,-0.00671575,-2.35000000,-43.39000000,0.06000000
77,0,0.68400000,-0.02800000,0.72800000,-0.10000000,-0.21000000,0.13000000,-0.00197142,-0.02672431,0.00050810,-2.35000000,-43.39000000,0.06000000
78,0,0.68300000,-0.02700000,0.73000000,0.24000000,-0.05000000,0.10000000,-0.00172352,-0.02677595,0.00061139,-2.35000000,-43.39000000,0.06000000
79,0,0.68700000,-0.03300000,0.72400000,0.25000000,0.08000000,-0.11000000,-0.00147619,-0.02669681,0.00050257,-2.35000000,-43.39000000,0.06000000
80,0,0.68900000,-0.02700000,0.72600000,-0.07000000,0.13000000,-0.28000000,-0.00154624,-0.02656671,0.00022236,-2.35000000,-43.39000000,0.06000000
81,0,0.68400000,-0.02800000,0.72300000,-0.01000000,-0.05000000,0.10000000,-0.00155615,-0.02661625,0.00032143,-2.35000000,-43.39000000,0.06000000
82,0,0.68900000,-0.03300000,0.72300000,0.20000000,0.01000000,-0.10000000,-0.00135867,-0.02660638,0.00022269,-2.35000000,-43.39000000,0.06000000
83,0,0.68400000,-0.02800000,0.72800000,-0.00000000,0.14000000,-0.02000000,-0.00135867,-0.01869353,-0.00090772,-2.35000000,-43.39000000,0.06000000
84,0,0.68000000,-0.02900000,0.73000000,0.15000000,0.03000000,-0.17000000,-0.00120241,-0.01866228,-0.00108481,-2.35000000,-43.39000000,0.06000000
85,0,0.68200000,-0.03500000,0.72600000,-0.02000000,-0.05000000,0.10000000,-0.00122265,-0.01871288,-0.00098362,-2.35000000,-43.39000000,0.06000000
86,0,0.69000000,-0.03100000,0.72600000,-0.13000000,0.00000000,0.11000000,-0.00135309,-0.01871288,-0.00087325,-2.35000000,-43.39000000,0.06000000
87,0,0.68800000,-0.02800000,0.72800000,0.14000000,0.28000000,0.05000000,-0.00121458,-0.01843587,-0.00082378,-2.35000000,-43.39000000,0.06000000
88,0,0.68600000,-0.02700000,0.73000000,-0.00000000,0.06000000,-0.04000000,-0.00121458,-0.01837653,-0.00086335,-2.35000000,-43.39000000,0.06000000
89,0,0.69300000,-0.03200000,0.72600000,0.19000000,-0.03000000,-0.28000000,0.00933434,-0.02004215,-0.01640912,-2.35000000,-43.39000000,0.06000000
90,0,0.68700000,-0.03000000,0.72800000,0.14000000,0.08000000,0.08000000,0.00947995,-0.01995894,-0.01632592,-2.35000000,-43.39000000,0.06000000
91,0,0.68600000,-0.02900000,0.72700000,0.09000000,0.28000000,-0.14000000,0.00957025,-0.01967800,-0.01646639,-2.34000000,-43.39000000,0.06000000
92,0,0.68900000,-0.02900000,0.72300000,-0.06000000,-0.02000000,0.03000000,0.00951039,-0.01969795,-0.01643646,-2.34000000,-43.39000000,0.05000000
93,0,0.68100000,-0.02900000,0.72600000,-0.14000000,-0.26000000,0.05000000,0.00937076,-0.01995728,-0.01638659,-2.35000000,-43.39000000,0.06000000
94,0,0.68500000,-0.03200000,0.72700000,-0.02000000,-0.13000000,-0.18000000,0.00935095,-0.02008604,-0.01656488,-2.35000000,-43.39000000,0.06000000
95,0,0.69000000,-0.03100000,0.72100000,-0.23000000,-0.03000000,0.07000000,-0.00344101,-0.02175456,-0.01267167,-2.35000000,-43.39000000,0.06000000
96,0,0.68700000,-0.02900000,0.72300000,-0.01000000,0.10000000,0.03000000,-0.00345242,-0.02164049,-0.01263745,-2.35000000,-43.39000000,0.06000000
97,0,0.69100000,-0.03200000,0.72600000,0.14000000,-0.01000000,0.07000000,-0.00330684,-0.02165088,-0.01256466,-2.35000000,-43.39000000,0.06000000
98,0,0.68800000,-0.03500000,0.72800000,-0.15000000,-0.10000000,-0.02000000,-0.00346643,-0.02175728,-0.01258594,-2.35000000,-43.39000000,0.06000000
99,0,0.68800000,-0.03300000,0.72700000,-0.07000000,0.09000000,-0.02000000,-0.00353748,-0.02166592,-0.01260624,-2.35000000,-43.39000000,0.06000000
100,0,0.68600000,-0.03600000,0.72500000,-0.15000000,0.08000000,0.06000000,-0.00368756,-0.02158588,-0.01254621,-2.35000000,-43.39000000,0.06000000
101,0,0.68900000,-0.02500000,0.72700000,0.04000000,-0.20000000,-0.05000000,-0.00143915,-0.03282791,-0.01535672,-2.35000000,-43.39000000,0.06000000
102,0,0.68400000,-0.03000000,0.72500000,-0.07000000,0.21000000,-0.11000000,-0.00151284,-0.03260684,-0.01547252,-2.35000000,-43.39000000,0.06000000
103,0,0.68600000,-0.03000000,0.72300000,-0.00000000,0.03000000,-0.22000000,-0.00151284,-0.03257676,-0.01569310,-2.36000000,-43.39000000,0.06000000
104,0,0.68200000,-0.02500000,0.72900000,-0.03000000,0.15000000,-0.07000000,-0.00154318,-0.03242507,-0.01576389,-2.35000000,-43.39000000,0.06000000
105,0,0.68700000,-0.03000000,0.73200000,-0.07000000,0.06000000,0.22000000,-0.00161288,-0.03236533,-0.01554483,-2.35000000,-43.39000000,0.06000000
106,0,0.68900000,-0.03100000,0.72600000,0.04000000,0.03000000,-0.20000000,-0.00157283,-0.03233529,-0.01574507,-2.35000000,-43.39000000,0.06000000
107,0,0.68500000,-0.03300000,0.72800000,0.14000000,-0.08000000,0.02000000,0.00619545,-0.03677431,-0.01463532,-2.35000000,-43.39000000,0.06000000
108,0,0.68900000,-0.02900000,0.72700000,0.08000000,-0.10000000,0.10000000,0.00628104,-0.03688130,-0.01452833,-2.35000000,-43.39000000,0.06000000
109,0,0.68400000,-0.03200000,0.72100000,0.16000000,-0.10000000,-0.06000000,0.00644910,-0.03698633,-0.01459135,-2.35000000,-43.39000000,0.06000000
110,0,0.68500000,-0.03000000,0.73000000,-0.15000000,0.26000000,0.10000000,0.00629738,-0.03672335,-0.01449020,-2.35000000,-43.39000000,0.06000000
111,0,0.68800000,-0.03100000,0.72700000,0.01000000,-0.29000000,-0.03000000,0.00630736,-0.03701281,-0.01452014,-2.35000000,-43.39000000,0.06000000
112,0,0.68700000,-0.03500000,0.72800000,0.03000000,0.01000000,-0.19000000,0.00633764,-0.03700271,-0.01471192,-2.35000000,-43.39000000,0.06000000
113,0,0.69000000,-0.03200000,0.72600000,-0.02000000,0.14000000,-0.27000000,0.00522674,-0.02922642,-0.02970905,-2.35000000,-43.39000000,0.06000000
114,0,0.68900000,-0.02800000,0.72800000,-0.12000000,-0.13000000,-0.05000000,0.00509918,-0.02936461,-0.02976220,-2.35000000,-43.39000000,0.06000000
115,0,0.69000000,-0.02900000,0.72700000,0.23000000,0.14000000,0.12000000,0.00533177,-0.02922303,-0.02964086,-2.35000000,-43.39000000,0.06000000
116,0,0.68600000,-0.02400000,0.72900000,0.08000000,0.21000000,0.03000000,0.00541289,-0.02901007,-0.02961043,-2.35000000,-43.39000000,0.06000000
117,0,0.68500000,-0.03100000,0.72800000,0.06000000,0.09000000,-0.08000000,0.00547281,-0.02892020,-0.02969032,-2.35000000,-43.39000000,0.06000000
118,0,0.68100000,-0.03100000,0.72200000,0.08000000,-0.10000000,0.10000000,0.00555361,-0.02902120,-0.02958932,-2.36000000,-43.39000000,0.06000000
119,0,0.69100000,-0.02900000,0.72500000,0.05000000,0.07000000,-0.03000000,0.00837118,-0.02507661,-0.03127985,-2.35000000,-43.39000000,0.06000000
120,0,0.69000000,-0.03000000,0.72500000,-0.09000000,-0.02000000,0.23000000,0.00827633,-0.02509769,-0.03103745,-2.35000000,-43.39000000,0.06000000
121,0,0.68900000,-0.02800000,0.72900000,-0.07000000,-0.15000000,0.24000000,0.00820612,-0.02524813,-0.03079676,-2.36000000,-43.39000000,0.06000000
122,0,0.69000000,-0.03000000,0.72800000,-0.04000000,-0.08000000,0.12000000,0.00816622,-0.02532794,-0.03067704,-2.36000000,-43.39000000,0.06000000
123,0,0.69000000,-0.02600000,0.72900000,-0.00000000,0.04000000,-0.05000000,0.00816622,-0.02528752,-0.03072757,-2.36000000,-43.39000000,0.06000000
124,0,0.68900000,-0.02700000,0.73000000,-0.17000000,-0.18000000,-0.07000000,0.00799512,-0.02546868,-0.03079802,-2.35000000,-43.39000000,0.06000000
125,0,0.68300000,-0.03200000,0.72400000,-0.18000000,0.13000000,0.07000000,-0.00199246,-0.01825543,-0.02691396,-2.36000000,-43.39000000,0.06000000
126,0,0.69000000,-0.02800000,0.72500000,-0.07000000,-0.01000000,-0.01000000,-0.00206575,-0.01826590,-0.02692443,-2.36000000,-43.39000000,0.06000000
127,0,0.68500000,-0.02900000,0.72300000,0.04000000,-0.20000000,-0.08000000,-0.00202567,-0.01846629,-0.02700459,-2.35000000,-43.39000000,0.06000000
128,0,0.68700000,-0.02500000,0.72300000,0.12000000,0.08000000,0.01000000,-0.00190610,-0.01838657,-0.02699462,-2.35000000,-43.39000000,0.06000000
129,0,0.68400000,-0.02600000,0.72700000,-0.01000000,-0.05000000,-0.10000000,-0.00191717,-0.01844194,-0.02710536,-2.35000000,-43.39000000,0.06000000
130,0,0.69100000,-0.03000000,0.72600000,0.01000000,-0.25000000,-0.01000000,-0.00190711,-0.01869343,-0.02711542,-2.35000000,-43.39000000,0.06000000
131,0,0.68800000,-0.03200000,0.72900000,-0.04000000,0.11000000,-0.10000000,-0.00412577,-0.01259212,-0.03266207,-2.35000000,-43.39000000,0.06000000
132,0,0.68300000,-0.03200000,0.72400000,-0.11000000,0.12000000,-0.18000000,-0.00424217,-0.01246513,-0.03285254,-2.35000000,-43.39000000,0.06000000
133,0,0.68900000,-0.02700000,0.72600000,0.23000000,-0.08000000,-0.31000000,-0.00401069,-0.01254565,-0.03316455,-2.35000000,-43.39000000,0.05000000
134,0,0.68600000,-0.03100000,0.72500000,0.17000000,0.16000000,-0.00000000,-0.00384093,-0.01238587,-0.03316455,-2.35000000,-43.39000000,0.05000000
135,0,0.68600000,-0.03200000,0.72500000,0.06000000,-0.10000000,0.01000000,-0.00378025,-0.01248700,-0.03315444,-2.35000000,-43.39000000,0.05000000
136,0,0.69000000,-0.03000000,0.72300000,-0.06000000,-0.06000000,-0.17000000,-0.00384027,-0.01254701,-0.03332448,-2.35000000,-43.39000000,0.05000000
137,0,0.68700000,-0.02700000,0.72700000,0.11000000,0.03000000,-0.11000000,0.00236619,-0.01085434,-0.03953094,-2.35000000,-43.39000000,0.06000000
138,0,0.68900000,-0.02900000,0.72400000,-0.09000000,-0.25000000,0.03000000,0.00227108,-0.01111854,-0.03949924,-2.35000000,-43.39000000,0.05000000
139,0,0.69100000,-0.03400000,0.72200000,-0.07000000,-0.11000000,0.07000000,0.00220059,-0.01122930,-0.03942875,-2.35000000,-43.39000000,0.05000000
140,0,0.69000000,-0.02500000,0.72600000,0.14000000,0.07000000,-0.03000000,0.00234170,-0.01115875,-0.03945899,-2.35000000,-43.39000000,0.06000000
141,0,0.68800000,-0.03000000,0.72300000,-0.22000000,0.00000000,0.02000000,0.00212180,-0.01115875,-0.03943900,-2.35000000,-43.39000000,0.05000000
142,0,0.68900000,-0.03100000,0.72400000,0.01000000,0.19000000,-0.02000000,0.00213179,-0.01096883,-0.03945899,-2.35000000,-43.39000000,0.05000000
143,0,0.68900000,-0.03300000,0.72500000,0.18000000,0.05000000,0.09000000,0.01212813,-0.00819207,-0.03446082,-2.35000000,-43.40000000,0.05000000
144,0,0.68900000,-0.03200000,0.72200000,0.29000000,0.14000000,-0.18000000,0.01243369,-0.00804456,-0.03465048,-2.35000000,-43.40000000,0.05000000
145,0,0.68800000,-0.03200000,0.72100000,-0.17000000,0.04000000,0.09000000,0.01226316,-0.00800443,-0.03456020,-2.35000000,-43.40000000,0.05000000
146,0,0.68800000,-0.03100000,0.72600000,0.17000000,-0.11000000,-0.15000000,0.01243458,-0.00811536,-0.03471146,-2.35000000,-43.40000000,0.05000000
147,0,0.68800000,-0.03100000,0.72400000,0.20000000,0.13000000,-0.05000000,0.01263426,-0.00798557,-0.03476137,-2.35000000,-43.40000000,0.06000000
148,0,0.68700000,-0.03100000,0.73200000,-0.14000000,-0.10000000,0.02000000,0.01249462,-0.00808531,-0.03474143,-2.35000000,-43.40000000,0.06000000
149,0,0.68300000,-0.02700000,0.72500000,-0.13000000,-0.15000000,0.05000000,0.00488126,-0.01686995,-0.03181321,-2.35000000,-43.40000000,0.06000000
150,0,0.68900000,-0.03000000,0.72800000,0.08000000,0.22000000,0.10000000,0.00496615,-0.01663652,-0.03170711,-2.35000000,-43.40000000,0.05000000
151,0,0.68900000,-0.03300000,0.72700000,-0.07000000,0.23000000,-0.14000000,0.00489573,-0.01640514,-0.03184794,-2.35000000,-43.40000000,0.06000000
152,0,0.68300000,-0.03200000,0.72200000,-0.04000000,-0.16000000,0.10000000,0.00485591,-0.01656442,-0.03174839,-2.35000000,-43.40000000,0.06000000
153,0,0.68800000,-0.03100000,0.72700000,0.18000000,0.06000000,0.02000000,0.00503733,-0.01650395,-0.03172824,-2.36000000,-43.40000000,0.06000000
154,0,0.69100000,-0.03100000,0.72700000,-0.07000000,-0.14000000,-0.07000000,0.00496733,-0.01664395,-0.03179824,-2.36000000,-43.40000000,0.06000000
155,0,0.68900000,-0.03000000,0.72400000,0.07000000,0.23000000,-0.21000000,0.00504108,-0.01640161,-0.03201951,-2.36000000,-43.40000000,0.06000000
156,0,0.68700000,-0.03300000,0.73200000,-0.07000000,-0.05000000,-0.07000000,0.00110010,-0.01921660,-0.03596050,-2.35000000,-43.40000000,0.06000000
157,0,0.69000000,-0.02900000,0.73000000,-0.02000000,-0.24000000,-0.06000000,0.00107850,-0.01947583,-0.03602530,-2.36000000,-43.40000000,0.06000000
158,0,0.68600000,-0.03300000,0.72700000,-0.13000000,0.16000000,-0.31000000,0.00094313,-0.01930922,-0.03634810,-2.36000000,-43.40000000,0.06000000
159,0,0.68300000,-0.02800000,0.72800000,-0.24000000,-0.09000000,-0.08000000,0.00070352,-0.01939908,-0.03642797,-2.36000000,-43.40000000,0.06000000
160,0,0.68900000,-0.03300000,0.72600000,-0.17000000,-0.01000000,0.09000000,0.00052586,-0.01940953,-0.03633391,-2.36000000,-43.40000000,0.06000000
161,0,0.68500000,-0.03600000,0.72700000,0.23000000,0.16000000,-0.07000000,0.00077473,-0.01923640,-0.03640965,-2.36000000,-43.40000000,0.06000000
162,0,0.68900000,-0.02800000,0.72900000,-0.18000000,0.36000000,0.07000000,-0.00919088,0.00069481,-0.03253414,-2.36000000,-43.40000000,0.06000000
163,0,0.68800000,-0.03500000,0.72500000,0.03000000,0.05000000,-0.06000000,-0.00915935,0.00074736,-0.03259720,-2.36000000,-43.40000000,0.06000000
164,0,0.68500000,-0.03300000,0.72500000,-0.14000000,0.13000000,0.01000000,-0.00930119,0.00087907,-0.03258707,-2.36000000,-43.40000000,0.06000000
165,0,0.68300000,-0.03400000,0.72900000,0.23000000,-0.09000000,0.04000000,-0.00907217,0.00078945,-0.03254724,-2.36000000,-43.39000000,0.06000000
166,0,0.69200000,-0.02800000,0.72200000,0.22000000,0.07000000,-0.04000000,-0.00885316,0.00085914,-0.03258706,-2.36000000,-43.39000000,0.06000000
167,0,0.69000000,-0.02900000,0.72500000,-0.16000000,-0.02000000,0.04000000,-0.00901324,0.00083913,-0.03254704,-2.37000000,-43.40000000,0.06000000
168,0,0.68500000,-0.03300000,0.72800000,-0.07000000,-0.13000000,-0.03000000,-0.01289623,-0.00637214,-0.03421118,-2.37000000,-43.40000000,0.06000000
169,0,0.67800000,-0.03100000,0.72200000,-0.16000000,-0.09000000,-0.13000000,-0.01306481,-0.00646697,-0.03434816,-2.37000000,-43.40000000,0.06000000
170,0,0.68900000,-0.03000000,0.72600000,0.08000000,0.07000000,0.02000000,-0.01298363,-0.00639593,-0.03432786,-2.37000000,-43.40000000,0.06000000
171,0,0.68200000,-0.03200000,0.72700000,0.14000000,-0.18000000,-0.10000000,-0.01284429,-0.00657508,-0.03442739,-2.37000000,-43.40000000,0.06000000
172,0,0.68900000,-0.03100000,0.72700000,-0.19000000,0.01000000,0.17000000,-0.01303330,-0.00656513,-0.03425827,-2.37000000,-43.40000000,0.07000000
173,0,0.69000000,-0.03100000,0.72700000,-0.03000000,0.01000000,0.08000000,-0.01306350,-0.00655506,-0.03417774,-2.37000000,-43.40000000,0.06000000
174,0,0.68400000,-0.02700000,0.72300000,0.08000000,0.19000000,0.02000000,-0.00854527,0.00417573,-0.03304818,-2.37000000,-43.40000000,0.06000000
175,0,0.69000000,-0.03200000,0.72500000,-0.09000000,-0.05000000,-0.09000000,-0.00864047,0.00412285,-0.03314338,-2.37000000,-43.40000000,0.06000000
176,0,0.69300000,-0.02500000,0.72500000,-0.19000000,-0.26000000,0.08000000,-0.00882988,0.00386365,-0.03306362,-2.37000000,-43.40000000,0.06000000
177,0,0.68300000,-0.02900000,0.72700000,-0.03000000,-0.04000000,-0.15000000,-0.00885969,0.00382391,-0.03321262,-2.37000000,-43.40000000,0.06000000
178,0,0.68400000,-0.03100000,0.73300000,0.12000000,-0.08000000,-0.10000000,-0.00874040,0.00374439,-0.03331203,-2.37000000,-43.40000000,0.06000000
179,0,0.68800000,-0.02700000,0.72800000,0.01000000,0.01000000,-0.13000000,-0.00873041,0.00375437,-0.03344185,-2.37000000,-43.40000000,0.06000000
180,0,0.69200000,-0.03100000,0.72700000,-0.19000000,0.04000000,-0.13000000,-0.01927942,0.00597522,-0.04065959,-2.37000000,-43.40000000,0.06000000
181,0,0.68500000,-0.03200000,0.72600000,-0.14000000,-0.19000000,-0.18000000,-0.01942924,0.00577189,-0.04085222,-2.37000000,-43.40000000,0.06000000
182,0,0.68400000,-0.03000000,0.73000000,-0.18000000,-0.14000000,0.08000000,-0.01961036,0.00563102,-0.04077172,-2.37000000,-43.40000000,0.06000000
183,0,0.69000000,-0.03000000,0.72900000,0.06000000,0.19000000,0.21000000,-0.01955060,0.00582026,-0.04056256,-2.37000000,-43.40000000,0.06000000
184,0,0.68200000,-0.03300000,0.72400000,-0.04000000,-0.18000000,0.03000000,-0.01959027,0.00564175,-0.04053281,-2.37000000,-43.40000000,0.06000000
185,0,0.68100000,-0.02900000,0.72200000,-0.19000000,0.22000000,0.05000000,-0.01977960,0.00586097,-0.04048299,-2.37000000,-43.40000000,0.06000000
186,0,0.68400000,-0.03100000,0.72200000,0.09000000,-0.11000000,-0.00000000,-0.01477047,-0.00026130,-0.04048299,-2.37000000,-43.40000000,0.06000000
187,0,0.68500000,-0.02700000,0.72600000,-0.04000000,-0.19000000,0.05000000,-0.01481270,-0.00046190,-0.04043020,-2.37000000,-43.40000000,0.06000000
188,0,0.68500000,-0.03000000,0.72500000,0.19000000,-0.05000000,0.03000000,-0.01462224,-0.00051202,-0.04040013,-2.37000000,-43.40000000,0.06000000
189,0,0.69100000,-0.02700000,0.72400000,-0.15000000,-0.13000000,0.15000000,-0.01477800,-0.00064702,-0.04024436,-2.37000000,-43.40000000,0.06000000
190,0,0.68900000,-0.02900000,0.72500000,0.24000000,0.15000000,-0.22000000,-0.01453920,-0.00049777,-0.04046327,-2.36000000,-43.40000000,0.06000000
191,0,0.68800000,-0.02500000,0.72600000,0.27000000,-0.17000000,-0.00000000,-0.01426880,-0.00066801,-0.04046327,-2.36000000,-43.40000000,0.06000000
192,0,0.69000000,-0.02600000,0.72700000,0.08000000,-0.05000000,0.23000000,-0.00976316,-0.00348404,-0.02750955,-2.36000000,-43.41000000,0.06000000
193,0,0.68700000,-0.02600000,0.72400000,-0.09000000,-0.17000000,-0.02000000,-0.00985795,-0.00366308,-0.02753061,-2.36000000,-43.41000000,0.06000000
194,0,0.68900000,-0.02900000,0.72800000,0.12000000,-0.05000000,0.15000000,-0.00973777,-0.00371316,-0.02738039,-2.36000000,-43.41000000,0.06000000
195,0,0.68300000,-0.03100000,0.72600000,0.08000000,0.00000000,-0.27000000,-0.00965838,-0.00371316,-0.02764834,-2.36000000,-43.41000000,0.06000000
196,0,0.68700000,-0.03000000,0.72600000,0.05000000,0.10000000,-0.05000000,-0.00960870,-0.00361380,-0.02769802,-2.36000000,-43.41000000,0.06000000
197,0,0.68900000,-0.03300000,0.72500000,-0.19000000,0.22000000,0.12000000,-0.00979952,-0.00339285,-0.02757750,-2.36000000,-43.41000000,0.06000000
198,0,0.68800000,-0.03000000,0.72700000,0.05000000,-0.31000000,0.01000000,-0.00702385,-0.02060203,-0.02702237,-2.36000000,-43.41000000,0.06000000
199,0,0.68500000,-0.02700000,0.72500000,0.24000000,0.10000000,-0.18000000,-0.00677280,-0.02049742,-0.02721065,-2.36000000,-43.41000000,0.06000000
200,0,0.69100000,-0.03100000,0.72300000,-0.13000000,-0.05000000,0.09000000,-0.00690280,-0.02054742,-0.02712065,-2.36000000,-43.41000000,0.06000000
201,0,0.68600000,-0.02700000,0.72300000,0.02000000,0.16000000,0.11000000,-0.00688271,-0.02038673,-0.02701018,-2.36000000,-43.41000000,0.06000000
202,0,0.68300000,-0.02800000,0.72400000,-0.13000000,-0.14000000,-0.03000000,-0.00701231,-0.02052630,-0.02704008,-2.36000000,-43.41000000,0.06000000
203,0,0.68300000,-0.02500000,0.72100000,0.05000000,-0.07000000,-0.12000000,-0.00696203,-0.02059671,-0.02716077,-2.36000000,-43.41000000,0.06000000
204,0,0.68600000,-0.02700000,0.72200000,-0.01000000,-0.01000000,0.24000000,-0.00751885,-0.02115353,-0.01379703,-2.36000000,-43.41000000,0.06000000
205,0,0.68900000,-0.03100000,0.72600000,0.06000000,0.06000000,0.03000000,-0.00745596,-0.02109064,-0.01376558,-2.36000000,-43.41000000,0.06000000
206,0,0.68600000,-0.03100000,0.72300000,-0.20000000,-0.05000000,0.16000000,-0.00765391,-0.02114013,-0.01360722,-2.36000000,-43.41000000,0.06000000
207,0,0.68900000,-0.02700000,0.72600000,0.22000000,0.29000000,-0.04000000,-0.00743753,-0.02085489,-0.01364656,-2.36000000,-43.41000000,0.06000000
208,0,0.68300000,-0.02700000,0.72500000,-0.03000000,-0.08000000,-0.10000000,-0.00746698,-0.02093344,-0.01374475,-2.36000000,-43.41000000,0.06000000
209,0,0.68800000,-0.03500000,0.72300000,0.04000000,-0.13000000,0.04000000,-0.00742663,-0.02106459,-0.01370440,-2.36000000,-43.41000000,0.06000000
210,0,0.68800000,-0.02500000,0.72100000,0.07000000,0.02000000,-0.22000000,-0.00348147,-0.01993740,-0.02610346,-2.36000000,-43.41000000,0.06000000
211,0,0.69100000,-0.02900000,0.72300000,-0.17000000,0.00000000,0.09000000,-0.00365792,-0.01993740,-0.02601005,-2.36000000,-43.41000000,0.06000000
212,0,0.69000000,-0.02800000,0.72500000,0.27000000,-0.22000000,0.15000000,-0.00338952,-0.02015610,-0.02586094,-2.36000000,-43.41000000,0.06000000
213,0,0.68500000,-0.03200000,0.72900000,-0.00000000,-0.01000000,0.05000000,-0.00338952,-0.02016611,-0.02581090,-2.36000000,-43.41000000,0.06000000
214,0,0.68500000,-0.02900000,0.72600000,-0.09000000,0.04000000,-0.10000000,-0.00347946,-0.02012613,-0.02591083,-2.36000000,-43.41000000,0.06000000
215,0,0.68400000,-0.03300000,0.72800000,0.12000000,0.06000000,-0.06000000,-0.00336023,-0.02006652,-0.02597045,-2.36000000,-43.41000000,0.06000000
216,0,0.68800000,-0.03000000,0.72300000,-0.20000000,0.00000000,0.23000000,-0.01446755,-0.02006652,-0.01319703,-2.36000000,-43.41000000,0.06000000
217,0,0.68800000,-0.03200000,0.72600000,-0.18000000,0.03000000,0.24000000,-0.01465494,-0.02003529,-0.01294718,-2.36000000,-43.41000000,0.06000000
218,0,0.68800000,-0.03700000,0.73000000,0.10000000,-0.11000000,0.12000000,-0.01455525,-0.02014495,-0.01282755,-2.36000000,-43.41000000,0.06000000
219,0,0.68500000,-0.03100000,0.72700000,0.15000000,-0.08000000,-0.09000000,-0.01440714,-0.02022394,-0.01291641,-2.36000000,-43.41000000,0.06000000
220,0,0.69000000,-0.02600000,0.72600000,0.08000000,-0.13000000,-0.07000000,-0.01432172,-0.02036275,-0.01299115,-2.36000000,-43.41000000,0.06000000
221,0,0.69000000,-0.02700000,0.72400000,-0.07000000,0.09000000,0.12000000,-0.01439220,-0.02027212,-0.01287032,-2.36000000,-43.41000000,0.06000000
222,0,0.69300000,-0.03200000,0.72900000,0.12000000,-0.02000000,-0.13000000,-0.00770979,-0.02138586,-0.02010961,-2.36000000,-43.41000000,0.06000000
223,0,0.69300000,-0.03200000,0.72200000,0.06000000,-0.11000000,-0.15000000,-0.00764727,-0.02150048,-0.02026591,-2.36000000,-43.41000000,0.06000000
224,0,0.68900000,-0.02900000,0.72800000,-0.11000000,-0.10000000,-0.27000000,-0.00775622,-0.02159953,-0.02053334,-2.36000000,-43.41000000,0.05000000
225,0,0.68900000,-0.03500000,0.72400000,0.19000000,0.11000000,0.12000000,-0.00756875,-0.02149099,-0.02041494,-2.36000000,-43.41000000,0.05000000
226,0,0.68800000,-0.03200000,0.72600000,0.10000000,0.34000000,-0.10000000,-0.00746760,-0.02114709,-0.02051608,-2.36000000,-43.41000000,0.06000000
227,0,0.69000000,-0.02500000,0.72800000,0.11000000,0.06000000,-0.05000000,-0.00735708,-0.02108680,-0.02056632,-2.36000000,-43.41000000,0.06000000
228,0,0.68300000,-0.03100000,0.72400000,-0.06000000,-0.14000000,-0.13000000,-0.01073741,-0.02897425,-0.02789038,-2.36000000,-43.41000000,0.06000000
229,0,0.69200000,-0.03400000,0.72400000,0.14000000,-0.34000000,0.21000000,-0.01059023,-0.02933169,-0.02766961,-2.36000000,-43.41000000,0.06000000
230,0,0.68900000,-0.02700000,0.72100000,-0.03000000,-0.02000000,-0.16000000,-0.01062054,-0.02935189,-0.02783125,-2.36000000,-43.41000000,0.06000000
231,0,0.68800000,-0.02900000,0.72900000,0.12000000,-0.02000000,0.09000000,-0.01049827,-0.02937227,-0.02773956,-2.35000000,-43.41000000,0.06000000
232,0,0.68300000,-0.03300000,0.72100000,0.12000000,-0.08000000,0.28000000,-0.01037821,-0.02945231,-0.02745941,-2.35000000,-43.41000000,0.06000000
233,0,0.68400000,-0.03000000,0.72400000,0.13000000,0.18000000,0.11000000,-0.01024805,-0.02927209,-0.02734928,-2.36000000,-43.41000000,0.06000000
234,0,0.68400000,-0.03100000,0.72700000,0.05000000,-0.19000000,-0.04000000,-0.00747618,-0.03980520,-0.02956678,-2.35000000,-43.41000000,0.06000000
235,0,0.68400000,-0.02900000,0.72600000,0.11000000,-0.08000000,-0.15000000,-0.00736015,-0.03988959,-0.02972501,-2.35000000,-43.41000000,0.06000000
236,0,0.68600000,-0.03300000,0.72700000,0.15000000,-0.02000000,-0.21000000,-0.00720971,-0.03990965,-0.02993561,-2.35000000,-43.41000000,0.06000000
237,0,0.69000000,-0.02900000,0.72800000,0.13000000,0.15000000,-0.05000000,-0.00707872,-0.03975850,-0.02998600,-2.35000000,-43.41000000,0.06000000
238,0,0.69200000,-0.02800000,0.72500000,-0.09000000,-0.02000000,0.03000000,-0.00716857,-0.03977847,-0.02995605,-2.35000000,-43.41000000,0.06000000
239,0,0.68600000,-0.02900000,0.72500000,0.03000000,-0.11000000,-0.07000000,-0.00713859,-0.03988839,-0.03002600,-2.35000000,-43.41000000,0.06000000
240,0,0.68500000,-0.02600000,0.72500000,-0.07000000,-0.08000000,-0.14000000,-0.01103450,-0.04434086,-0.03781781,-2.35000000,-43.41000000,0.06000000
241,0,0.69000000,-0.03200000,0.72600000,-0.04000000,-0.08000000,-0.02000000,-0.01107573,-0.04442332,-0.03783843,-2.35000000,-43.41000000,0.06000000
242,0,0.68800000,-0.02900000,0.72500000,-0.15000000,0.20000000,-0.06000000,-0.01122323,-0.04422665,-0.03789743,-2.35000000,-43.41000000,0.06000000
243,0,0.69000000,-0.02400000,0.72200000,-0.01000000,0.10000000,0.03000000,-0.01123343,-0.04412465,-0.03786683,-2.35000000,-43.41000000,0.05000000
244,0,0.68700000,-0.02900000,0.73100000,-0.19000000,-0.34000000,-0.08000000,-0.01142122,-0.04446068,-0.03794590,-2.35000000,-43.41000000,0.05000000
245,0,0.68800000,-0.03300000,0.72600000,0.05000000,0.25000000,-0.14000000,-0.01137187,-0.04421395,-0.03808406,-2.35000000,-43.41000000,0.05000000
246,0,0.68700000,-0.02500000,0.72500000,-0.07000000,0.05000000,-0.09000000,-0.01531870,-0.04139479,-0.04315856,-2.35000000,-43.41000000,0.05000000
247,0,0.68900000,-0.03000000,0.72900000,-0.02000000,-0.02000000,0.03000000,-0.01533938,-0.04141547,-0.04312754,-2.35000000,-43.41000000,0.05000000
248,0,0.69000000,-0.02600000,0.72300000,0.05000000,0.03000000,0.00000000,-0.01528935,-0.04138546,-0.04312754,-2.35000000,-43.41000000,0.05000000
249,0,0.68300000,-0.02300000,0.72500000,-0.13000000,0.09000000,-0.03000000,-0.01542465,-0.04129178,-0.04315876,-2.35000000,-43.41000000,0.05000000
250,0,0.68600000,-0.03300000,0.72400000,-0.22000000,0.10000000,0.12000000,-0.01564256,-0.04119273,-0.04303990,-2.35000000,-43.41000000,0.05000000
251,0,0.69100000,-0.02800000,0.72200000,0.01000000,-0.37000000,-0.06000000,-0.01563252,-0.04156416,-0.04310013,-2.35000000,-43.41000000,0.05000000
252,0,0.68600000,-0.02900000,0.72000000,0.09000000,0.12000000,-0.05000000,-0.01063751,-0.03490414,-0.04587514,-2.35000000,-43.41000000,0.05000000
253,0,0.68500000,-0.03300000,0.72500000,0.12000000,-0.02000000,-0.03000000,-0.01051133,-0.03492517,-0.04590669,-2.35000000,-43.41000000,0.05000000
254,0,0.68500000,-0.03000000,0.72700000,0.12000000,-0.01000000,-0.26000000,-0.01039050,-0.03493524,-0.04616849,-2.35000000,-43.41000000,0.05000000
255,0,0.68700000,-0.03300000,0.72900000,-0.02000000,0.30000000,-0.02000000,-0.01041050,-0.03463523,-0.04618849,-2.35000000,-43.41000000,0.05000000
256,0,0.68800000,-0.03000000,0.72600000,0.13000000,0.09000000,0.03000000,-0.01028139,-0.03454585,-0.04615870,-2.35000000,-43.41000000,0.06000000
257,0,0.68900000,-0.03300000,0.72700000,0.23000000,-0.15000000,0.18000000,-0.01004042,-0.03470301,-0.04597011,-2.35000000,-43.41000000,0.06000000
258,0,0.69100000,-0.02900000,0.72700000,0.10000000,-0.02000000,0.20000000,-0.00446756,-0.03581758,-0.03482440,-2.35000000,-43.41000000,0.06000000
259,0,0.68700000,-0.03000000,0.72200000,0.06000000,0.16000000,0.31000000,-0.00440530,-0.03565155,-0.03450272,-2.35000000,-43.41000000,0.06000000
260,0,0.68800000,-0.03500000,0.72700000,-0.01000000,-0.30000000,-0.19000000,-0.00441544,-0.03595563,-0.03469530,-2.35000000,-43.42000000,0.06000000
261,0,0.68800000,-0.02900000,0.72600000,0.06000000,0.07000000,-0.10000000,-0.00435604,-0.03588633,-0.03479431,-2.35000000,-43.41000000,0.06000000
262,0,0.68900000,-0.03200000,0.72300000,-0.10000000,-0.03000000,-0.13000000,-0.00445437,-0.03591583,-0.03492214,-2.35000000,-43.41000000,0.06000000
263,0,0.69100000,-0.03000000,0.73000000,0.05000000,0.29000000,-0.06000000,-0.00440508,-0.03562997,-0.03498128,-2.35000000,-43.41000000,0.05000000
264,0,0.68800000,-0.02600000,0.72500000,-0.09000000,-0.04000000,-0.06000000,-0.00947061,-0.03788132,-0.03835830,-2.35000000,-43.42000000,0.05000000
265,0,0.69500000,-0.02900000,0.72700000,-0.04000000,0.07000000,-0.06000000,-0.00951266,-0.03780772,-0.03842138,-2.35000000,-43.42000000,0.05000000
266,0,0.69100000,-0.02700000,0.72300000,0.17000000,-0.04000000,0.03000000,-0.00934326,-0.03784758,-0.03839148,-2.35000000,-43.42000000,0.05000000
267,0,0.68600000,-0.02700000,0.72400000,0.03000000,0.09000000,0.17000000,-0.00931354,-0.03775842,-0.03822306,-2.34000000,-43.42000000,0.05000000
268,0,0.68600000,-0.02900000,0.72700000,-0.04000000,-0.28000000,-0.05000000,-0.00935317,-0.03803582,-0.03827259,-2.34000000,-43.42000000,0.05000000
269,0,0.69000000,-0.02800000,0.72200000,0.23000000,-0.40000000,0.06000000,-0.00912481,-0.03843297,-0.03821302,-2.34000000,-43.42000000,0.06000000
270,0,0.69000000,-0.03100000,0.72500000,-0.10000000,-0.04000000,-0.16000000,-0.01468271,-0.04065613,-0.04710567,-2.35000000,-43.42000000,0.06000000
271,0,0.69300000,-0.03200000,0.72900000,0.19000000,0.14000000,0.21000000,-0.01442580,-0.04046683,-0.04682171,-2.34000000,-43.42000000,0.06000000
272,0,0.69400000,-0.03300000,0.72900000,0.16000000,-0.15000000,0.25000000,-0.01421891,-0.04066079,-0.04649845,-2.35000000,-43.42000000,0.06000000
273,0,0.68800000,-0.02400000,0.72700000,0.08000000,0.11000000,0.17000000,-0.01411537,-0.04051842,-0.04627843,-2.34000000,-43.42000000,0.06000000
274,0,0.68700000,-0.03600000,0.72400000,-0.06000000,-0.13000000,-0.10000000,-0.01419267,-0.04068590,-0.04640726,-2.35000000,-43.42000000,0.06000000
275,0,0.68800000,-0.02700000,0.72800000,-0.03000000,-0.04000000,0.15000000,-0.01423215,-0.04073853,-0.04620987,-2.35000000,-43.42000000,0.06000000
276,0,0.68600000,-0.03000000,0.72700000,-0.15000000,-0.02000000,-0.15000000,-0.02286541,-0.04188964,-0.05484313,-2.35000000,-43.42000000,0.06000000
277,0,0.68700000,-0.02900000,0.72900000,-0.07000000,0.06000000,-0.03000000,-0.02296635,-0.04180311,-0.05488639,-2.35000000,-43.42000000,0.06000000
278,0,0.68800000,-0.02900000,0.72700000,0.01000000,0.16000000,0.05000000,-0.02295303,-0.04159001,-0.05481979,-2.35000000,-43.42000000,0.06000000
279,0,0.68700000,-0.03200000,0.72600000,0.02000000,-0.08000000,0.07000000,-0.02292668,-0.04169542,-0.05472756,-2.35000000,-43.42000000,0.06000000
280,0,0.68500000,-0.02600000,0.72400000,-0.07000000,0.00000000,-0.00000000,-0.02301834,-0.04169542,-0.05472756,-2.35000000,-43.42000000,0.06000000
281,0,0.69000000,-0.02900000,0.72700000,0.21000000,0.10000000,-0.19000000,-0.02273359,-0.04155982,-0.05498520,-2.35000000,-43.42000000,0.06000000
282,0,0.68700000,-0.02300000,0.72800000,-0.28000000,0.21000000,0.15000000,-0.02310412,-0.04128192,-0.05478670,-2.35000000,-43.41000000,0.06000000
283,0,0.68400000,-0.03200000,0.72300000,-0.01000000,-0.12000000,0.12000000,-0.02364668,-0.04779265,-0.04827597,-2.35000000,-43.42000000,0.06000000
284,0,0.68600000,-0.03300000,0.72400000,-0.09000000,-0.20000000,-0.19000000,-0.02377709,-0.04808244,-0.04855128,-2.35000000,-43.42000000,0.06000000
285,0,0.68600000,-0.02900000,0.72300000,0.07000000,0.15000000,0.09000000,-0.02368011,-0.04787464,-0.04842660,-2.35000000,-43.42000000,0.06000000
286,0,0.68600000,-0.03000000,0.72800000,-0.14000000,-0.00000000,0.09000000,-0.02387266,-0.04787464,-0.04830282,-2.35000000,-43.42000000,0.06000000
287,0,0.68600000,-0.03200000,0.72400000,0.12000000,0.10000000,-0.05000000,-0.02370510,-0.04773502,-0.04837264,-2.34000000,-43.42000000,0.06000000
288,0,0.69100000,-0.02800000,0.72600000,0.01000000,0.02000000,0.12000000,-0.02369055,-0.04770591,-0.04819802,-2.35000000,-43.42000000,0.06000000
289,0,0.69100000,-0.02900000,0.72800000,0.05000000,-0.18000000,0.27000000,-0.02101729,-0.05732965,-0.03376240,-2.35000000,-43.42000000,0.06000000
290,0,0.69400000,-0.02700000,0.72500000,-0.12000000,0.17000000,-0.06000000,-0.02118830,-0.05708738,-0.03384791,-2.35000000,-43.42000000,0.06000000
291,0,0.69500000,-0.03000000,0.72300000,0.10000000,0.08000000,-0.12000000,-0.02105061,-0.05697722,-0.03401315,-2.35000000,-43.42000000,0.06000000
292,0,0.68800000,-0.03200000,0.72400000,0.12000000,0.31000000,0.08000000,-0.02088425,-0.05654748,-0.03390225,-2.35000000,-43.42000000,0.06000000
293,0,0.68400000,-0.02700000,0.72400000,0.03000000,0.08000000,-0.16000000,-0.02084285,-0.05643707,-0.03412306,-2.35000000,-43.42000000,0.06000000
294,0,0.69000000,-0.02800000,0.72600000,0.10000000,-0.10000000,-0.06000000,-0.02069927,-0.05658066,-0.03420921,-2.35000000,-43.42000000,0.06000000
295,0,0.68700000,-0.02400000,0.72600000,-0.13000000,0.22000000,-0.04000000,-0.02778848,-0.04458353,-0.03639050,-2.35000000,-43.42000000,0.06000000
296,0,0.68800000,-0.02800000,0.72900000,-0.20000000,0.01000000,-0.33000000,-0.02809930,-0.04456799,-0.03690336,-2.35000000,-43.42000000,0.06000000
297,0,0.68600000,-0.03300000,0.72700000,0.03000000,-0.07000000,0.06000000,-0.02805002,-0.04468297,-0.03680481,-2.35000000,-43.42000000,0.06000000
298,0,0.68700000,-0.03000000,0.72400000,-0.02000000,0.17000000,-0.15000000,-0.02808637,-0.04437403,-0.03707741,-2.35000000,-43.42000000,0.06000000
299,0,0.68900000,-0.03100000,0.72700000,-0.03000000,-0.02000000,0.08000000,-0.02813550,-0.04440678,-0.03694640,-2.34000000,-43.42000000,0.06000000
300,0,0.68700000,-0.02600000,0.72400000,0.14000000,-0.28000000,0.18000000,-0.02792149,-0.04483479,-0.03667125,-2.34000000,-43.42000000,0.06000000
301,0,0.68800000,-0.02600000,0.72400000,0.03000000,-0.13000000,-0.29000000,-0.02635700,-0.05161427,-0.05179472,-2.34000000,-43.42000000,0.06000000
302,0,0.69000000,-0.02600000,0.72800000,-0.01000000,-0.07000000,-0.10000000,-0.02636806,-0.05169173,-0.05190538,-2.34000000,-43.42000000,0.06000000
303,0,0.69300000,-0.03100000,0.72200000,0.22000000,0.18000000,-0.33000000,-0.02614653,-0.05151048,-0.05223767,-2.34000000,-43.42000000,0.06000000
304,0,0.68400000,-0.02900000,0.72700000,0.04000000,-0.07000000,0.23000000,-0.02610498,-0.05158321,-0.05199872,-2.34000000,-43.42000000,0.06000000
305,0,0.68800000,-0.02800000,0.72600000,0.00000000,-0.03000000,-0.14000000,-0.02610498,-0.05161354,-0.05214026,-2.34000000,-43.42000000,0.06000000
306,0,0.68900000,-0.03300000,0.72600000,0.07000000,0.12000000,-0.27000000,-0.02603471,-0.05149307,-0.05241130,-2.34000000,-43.42000000,0.06000000
307,0,0.68700000,-0.02600000,0.72200000,0.03000000,-0.05000000,-0.19000000,-0.02437629,-0.05425711,-0.06291465,-2.34000000,-43.42000000,0.06000000
308,0,0.68800000,-0.02900000,0.72200000,0.20000000,0.04000000,0.02000000,-0.02416631,-0.05421512,-0.06289365,-2.34000000,-43.42000000,0.06000000
309,0,0.68700000,-0.03300000,0.72300000,-0.22000000,-0.05000000,0.12000000,-0.02438685,-0.05426524,-0.06277336,-2.34000000,-43.42000000,0.06000000
310,0,0.68800000,-0.03000000,0.72700000,-0.03000000,0.10000000,0.10000000,-0.02441676,-0.05416552,-0.06267365,-2.34000000,-43.42000000,0.06000000
311,0,0.68500000,-0.02900000,0.72700000,0.10000000,-0.06000000,-0.04000000,-0.02431564,-0.05422620,-0.06271410,-2.34000000,-43.42000000,0.06000000
312,0,0.69100000,-0.02900000,0.72300000,-0.01000000,-0.08000000,0.18000000,-0.02432566,-0.05430637,-0.06253371,-2.34000000,-43.42000000,0.06000000
313,0,0.69000000,-0.03100000,0.72500000,-0.11000000,0.09000000,-0.13000000,-0.03045443,-0.04929192,-0.06977680,-2.34000000,-43.42000000,0.05000000
314,0,0.69000000,-0.02900000,0.72800000,-0.09000000,0.07000000,-0.13000000,-0.03054787,-0.04921925,-0.06991177,-2.34000000,-43.42000000,0.05000000
315,0,0.68500000,-0.02700000,0.72400000,0.21000000,-0.04000000,0.00000000,-0.03033982,-0.04925888,-0.06991177,-2.33000000,-43.42000000,0.05000000
316,0,0.68700000,-0.03200000,0.72600000,0.17000000,-0.01000000,-0.10000000,-0.03016855,-0.04926895,-0.07001251,-2.33000000,-43.42000000,0.05000000
317,0,0.68700000,-0.03000000,0.72600000,-0.16000000,0.04000000,-0.04000000,-0.03032932,-0.04922876,-0.07005270,-2.33000000,-43.42000000,0.05000000
318,0,0.68900000,-0.03100000,0.72800000,-0.05000000,0.10000000,-0.30000000,-0.03037957,-0.04912825,-0.07035421,-2.33000000,-43.42000000,0.05000000
319,0,0.69000000,-0.03100000,0.72700000,0.03000000,0.17000000,-0.19000000,-0.02869025,-0.03955543,-0.08105326,-2.33000000,-43.42000000,0.05000000
320,0,0.68700000,-0.03400000,0.72300000,0.08000000,0.19000000,-0.22000000,-0.02860720,-0.03935817,-0.08128165,-2.33000000,-43.42000000,0.05000000
321,0,0.68700000,-0.02900000,0.72500000,-0.10000000,-0.05000000,0.04000000,-0.02870620,-0.03940767,-0.08124205,-2.33000000,-43.42000000,0.05000000
322,0,0.68500000,-0.02600000,0.72500000,0.04000000,-0.12000000,0.11000000,-0.02866595,-0.03952842,-0.08113137,-2.33000000,-43.42000000,0.05000000
323,0,0.68700000,-0.02900000,0.72400000,0.21000000,0.17000000,-0.07000000,-0.02845619,-0.03935862,-0.08120129,-2.33000000,-43.42000000,0.05000000
324,0,0.68800000,-0.03000000,0.72600000,0.24000000,0.44000000,-0.21000000,-0.02818437,-0.03886028,-0.08143913,-2.33000000,-43.42000000,0.05000000
325,0,0.68800000,-0.03100000,0.72700000,0.04000000,-0.26000000,-0.19000000,-0.02596621,-0.05327835,-0.09197541,-2.33000000,-43.42000000,0.06000000
326,0,0.68300000,-0.02800000,0.72800000,-0.01000000,-0.15000000,-0.04000000,-0.02597726,-0.05344420,-0.09201964,-2.33000000,-43.42000000,0.06000000
327,0,0.68700000,-0.02900000,0.72100000,0.17000000,0.14000000,-0.04000000,-0.02580454,-0.05330196,-0.09206028,-2.33000000,-43.42000000,0.05000000
328,0,0.68700000,-0.02900000,0.72900000,0.04000000,0.05000000,-0.04000000,-0.02576467,-0.05325211,-0.09210016,-2.33000000,-43.42000000,0.05000000
329,0,0.68900000,-0.03200000,0.72300000,0.21000000,-0.00000000,-0.10000000,-0.02553754,-0.05325211,-0.09220831,-2.33000000,-43.42000000,0.05000000
330,0,0.68900000,-0.02700000,0.73100000,-0.08000000,0.22000000,0.06000000,-0.02561882,-0.05302859,-0.09214735,-2.33000000,-43.42000000,0.05000000
331,0,0.68800000,-0.02900000,0.72500000,0.14000000,-0.12000000,-0.16000000,-0.01773862,-0.05978305,-0.10115330,-2.33000000,-43.42000000,0.05000000
332,0,0.68600000,-0.02900000,0.72400000,-0.07000000,0.16000000,-0.02000000,-0.01781321,-0.05961255,-0.10117461,-2.33000000,-43.42000000,0.05000000
333,0,0.68500000,-0.02700000,0.72200000,-0.19000000,-0.00000000,-0.07000000,-0.01800611,-0.05961255,-0.10124568,-2.33000000,-43.42000000,0.05000000
334,0,0.68600000,-0.02900000,0.72400000,-0.10000000,-0.15000000,0.03000000,-0.01810569,-0.05976191,-0.10121581,-2.33000000,-43.42000000,0.05000000
335,0,0.68500000,-0.03200000,0.72500000,-0.18000000,0.05000000,-0.08000000,-0.01828543,-0.05971198,-0.10129570,-2.33000000,-43.42000000,0.05000000
336,0,0.68800000,-0.03100000,0.72400000,0.06000000,-0.09000000,-0.11000000,-0.01822556,-0.05980179,-0.10140546,-2.33000000,-43.42000000,0.05000000
337,0,0.69000000,-0.03100000,0.72500000,0.02000000,-0.09000000,0.06000000,-0.01711593,-0.06479515,-0.09807656,-2.33000000,-43.42000000,0.05000000
338,0,0.69100000,-0.03300000,0.72800000,0.06000000,-0.12000000,0.17000000,-0.01704202,-0.06494296,-0.09786716,-2.33000000,-43.42000000,0.05000000
339,0,0.68700000,-0.03500000,0.72800000,-0.09000000,0.04000000,-0.05000000,-0.01713361,-0.06490226,-0.09791804,-2.33000000,-43.42000000,0.05000000
340,0,0.68600000,-0.03100000,0.72600000,0.16000000,-0.07000000,-0.10000000,-0.01697402,-0.06497208,-0.09801778,-2.33000000,-43.42000000,0.05000000
341,0,0.68900000,-0.02700000,0.72500000,0.24000000,0.02000000,-0.02000000,-0.01673499,-0.06495216,-0.09803770,-2.33000000,-43.42000000,0.05000000
342,0,0.69000000,-0.02500000,0.72600000,0.21000000,0.19000000,0.02000000,-0.01652503,-0.06476220,-0.09801770,-2.33000000,-43.42000000,0.05000000
343,0,0.68400000,-0.02600000,0.72800000,-0.12000000,-0.18000000,0.10000000,-0.02316405,-0.07472072,-0.09248519,-2.33000000,-43.42000000,0.06000000
344,0,0.68300000,-0.03000000,0.72600000,0.16000000,-0.03000000,0.14000000,-0.02299802,-0.07475185,-0.09233991,-2.33000000,-43.42000000,0.06000000
345,0,0.69100000,-0.02500000,0.72100000,0.03000000,0.08000000,-0.22000000,-0.02296802,-0.07467187,-0.09255987,-2.33000000,-43.42000000,0.05000000
346,0,0.68800000,-0.02800000,0.73200000,-0.15000000,-0.09000000,0.03000000,-0.02311763,-0.07476163,-0.09252994,-2.33000000,-43.42000000,0.05000000
347,0,0.68700000,-0.03100000,0.72400000,-0.12000000,-0.14000000,-0.02000000,-0.02323529,-0.07489890,-0.09254955,-2.33000000,-43.42000000,0.05000000
348,0,0.69100000,-0.02800000,0.72500000,0.08000000,0.10000000,-0.10000000,-0.02315613,-0.07479995,-0.09264851,-2.33000000,-43.42000000,0.05000000
349,0,0.68700000,-0.02700000,0.72800000,-0.09000000,0.11000000,0.00000000,-0.02824588,-0.06857914,-0.09264851,-2.33000000,-43.42000000,0.05000000
350,0,0.68700000,-0.02900000,0.72700000,-0.13000000,0.13000000,0.10000000,-0.02838843,-0.06843659,-0.09253885,-2.33000000,-43.42000000,0.05000000
351,0,0.68500000,-0.02800000,0.72400000,-0.04000000,-0.12000000,0.00000000,-0.02842810,-0.06855559,-0.09253885,-2.33000000,-43.42000000,0.05000000
352,0,0.69200000,-0.02700000,0.72400000,0.27000000,0.07000000,0.10000000,-0.02815964,-0.06848599,-0.09243942,-2.33000000,-43.42000000,0.05000000
353,0,0.68800000,-0.02900000,0.72500000,-0.06000000,-0.03000000,-0.10000000,-0.02821914,-0.06851574,-0.09253859,-2.33000000,-43.42000000,0.05000000
354,0,0.68300000,-0.02600000,0.72600000,0.12000000,-0.10000000,0.10000000,-0.02809908,-0.06861579,-0.09243854,-2.33000000,-43.42000000,0.05000000
355,0,0.68900000,-0.02900000,0.72600000,-0.05000000,-0.15000000,-0.05000000,-0.03087331,-0.07693849,-0.09521277,-2.33000000,-43.42000000,0.05000000
356,0,0.68400000,-0.03000000,0.72800000,-0.01000000,-0.01000000,-0.07000000,-0.03088393,-0.07694911,-0.09528713,-2.33000000,-43.42000000,0.05000000
357,0,0.69200000,-0.02900000,0.72700000,-0.14000000,0.02000000,0.04000000,-0.03102384,-0.07692912,-0.09524715,-2.33000000,-43.42000000,0.05000000
358,0,0.68500000,-0.02600000,0.72300000,-0.05000000,0.02000000,-0.01000000,-0.03107356,-0.07690923,-0.09525710,-2.33000000,-43.42000000,0.05000000
359,0,0.68500000,-0.03000000,0.72300000,0.11000000,0.02000000,0.04000000,-0.03096401,-0.07688931,-0.09521726,-2.33000000,-43.42000000,0.05000000
360,0,0.68300000,-0.03500000,0.72700000,0.12000000,-0.28000000,-0.06000000,-0.03084369,-0.07717005,-0.09527742,-2.33000000,-43.42000000,0.05000000
361,0,0.68600000,-0.03100000,0.72200000,-0.07000000,-0.09000000,-0.04000000,-0.03473155,-0.08216874,-0.09749906,-2.33000000,-43.42000000,0.05000000
362,0,0.68800000,-0.03100000,0.72200000,0.04000000,-0.05000000,-0.10000000,-0.03468849,-0.08222256,-0.09760671,-2.33000000,-43.42000000,0.05000000
363,0,0.68300000,-0.02900000,0.72900000,0.04000000,0.04000000,-0.07000000,-0.03464826,-0.08218233,-0.09767711,-2.33000000,-43.42000000,0.05000000
364,0,0.69300000,-0.02600000,0.72300000,-0.15000000,0.01000000,0.06000000,-0.03479744,-0.08217239,-0.09761744,-2.33000000,-43.42000000,0.05000000
365,0,0.68700000,-0.02600000,0.72700000,-0.08000000,0.09000000,0.37000000,-0.03487700,-0.08208288,-0.09724946,-2.33000000,-43.42000000,0.05000000
366,0,0.69000000,-0.02800000,0.72200000,-0.07000000,0.01000000,0.20000000,-0.03494722,-0.08207285,-0.09704883,-2.33000000,-43.42000000,0.05000000
367,0,0.68600000,-0.03100000,0.73000000,0.15000000,-0.05000000,0.08000000,-0.02648191,-0.08489462,-0.09253400,-2.33000000,-43.42000000,0.05000000
368,0,0.69300000,-0.03000000,0.72500000,0.23000000,0.02000000,0.01000000,-0.02624384,-0.08487392,-0.09252365,-2.33000000,-43.42000000,0.05000000
369,0,0.68800000,-0.03000000,0.72600000,0.12000000,0.24000000,-0.15000000,-0.02612527,-0.08463677,-0.09267186,-2.33000000,-43.42000000,0.05000000
370,0,0.68800000,-0.03100000,0.72200000,0.08000000,0.12000000,0.09000000,-0.02604627,-0.08451828,-0.09258300,-2.33000000,-43.42000000,0.05000000
371,0,0.68500000,-0.03000000,0.72600000,-0.09000000,-0.23000000,0.19000000,-0.02613634,-0.08474846,-0.09239286,-2.33000000,-43.42000000,0.05000000
372,0,0.68300000,-0.03400000,0.72400000,0.15000000,0.08000000,-0.23000000,-0.02598694,-0.08466878,-0.09262193,-2.32000000,-43.42000000,0.05000000
373,0,0.69000000,-0.02700000,0.72500000,-0.22000000,-0.07000000,-0.01000000,-0.03821565,-0.08855973,-0.09317778,-2.32000000,-43.42000000,0.05000000
374,0,0.68600000,-0.02800000,0.72600000,0.05000000,0.00000000,-0.08000000,-0.03816197,-0.08855973,-0.09326366,-2.32000000,-43.42000000,0.05000000
375,0,0.69200000,-0.02500000,0.72800000,0.04000000,-0.09000000,-0.07000000,-0.03812194,-0.08864980,-0.09333371,-2.32000000,-43.42000000,0.05000000
376,0,0.68700000,-0.02600000,0.72600000,0.19000000,-0.09000000,-0.18000000,-0.03793447,-0.08873860,-0.09351131,-2.32000000,-43.42000000,0.05000000
377,0,0.68500000,-0.02600000,0.72200000,0.06000000,0.08000000,-0.04000000,-0.03787413,-0.08865814,-0.09355154,-2.32000000,-43.42000000,0.05000000
378,0,0.68800000,-0.02800000,0.72300000,0.16000000,-0.10000000,0.08000000,-0.03771416,-0.08875812,-0.09347156,-2.32000000,-43.42000000,0.05000000
379,0,0.69400000,-0.03100000,0.72500000,-0.07000000,0.01000000,-0.16000000,-0.04160336,-0.08820252,-0.10236115,-2.32000000,-43.42000000,0.05000000
380,0,0.68600000,-0.03000000,0.72600000,0.16000000,0.13000000,0.21000000,-0.04143737,-0.08806765,-0.10214329,-2.32000000,-43.42000000,0.05000000
381,0,0.68900000,-0.02600000,0.72600000,-0.05000000,0.00000000,-0.22000000,-0.04148693,-0.08806765,-0.10236135,-2.32000000,-43.42000000,0.05000000
382,0,0.68300000,-0.03200000,0.72500000,0.09000000,0.24000000,-0.30000000,-0.04139750,-0.08782918,-0.10265943,-2.32000000,-43.42000000,0.05000000
383,0,0.68900000,-0.02700000,0.71900000,-0.08000000,-0.20000000,0.15000000,-0.04147802,-0.08803048,-0.10250846,-2.32000000,-43.42000000,0.04000000
384,0,0.68200000,-0.02600000,0.72600000,0.04000000,0.12000000,-0.15000000,-0.04143825,-0.08791116,-0.10265761,-2.31000000,-43.42000000,0.04000000
385,0,0.68500000,-0.02900000,0.72400000,-0.15000000,-0.11000000,0.14000000,-0.04990367,-0.09411914,-0.09475654,-2.31000000,-43.42000000,0.04000000
386,0,0.68700000,-0.02900000,0.72900000,-0.19000000,0.08000000,0.10000000,-0.05010007,-0.09403645,-0.09465318,-2.32000000,-43.42000000,0.04000000
387,0,0.68800000,-0.02700000,0.72600000,-0.23000000,-0.06000000,0.18000000,-0.05032695,-0.09409563,-0.09447562,-2.32000000,-43.42000000,0.05000000
388,0,0.69000000,-0.03200000,0.72500000,0.03000000,0.02000000,0.12000000,-0.05029695,-0.09407564,-0.09435565,-2.32000000,-43.42000000,0.04000000
389,0,0.68600000,-0.03300000,0.72400000,-0.08000000,-0.16000000,-0.07000000,-0.05037669,-0.09423511,-0.09442541,-2.32000000,-43.42000000,0.05000000
390,0,0.69000000,-0.02800000,0.72600000,-0.26000000,0.15000000,0.13000000,-0.05065306,-0.09407566,-0.09428723,-2.32000000,-43.42000000,0.05000000
391,0,0.69200000,-0.02900000,0.72700000,-0.08000000,-0.02000000,0.07000000,-0.05509668,-0.09518657,-0.09039906,-2.32000000,-43.42000000,0.05000000
392,0,0.68900000,-0.02900000,0.72400000,0.20000000,-0.12000000,-0.19000000,-0.05488761,-0.09531201,-0.09059768,-2.32000000,-43.42000000,0.05000000
393,0,0.68600000,-0.02900000,0.72400000,0.14000000,-0.24000000,-0.07000000,-0.05474771,-0.09555184,-0.09066763,-2.32000000,-43.43000000,0.05000000
394,0,0.68300000,-0.03000000,0.72700000,-0.05000000,0.13000000,0.12000000,-0.05479791,-0.09542131,-0.09054714,-2.32000000,-43.43000000,0.05000000
395,0,0.69000000,-0.03200000,0.72700000,-0.08000000,0.12000000,0.09000000,-0.05487820,-0.09530088,-0.09045681,-2.32000000,-43.42000000,0.04000000
396,0,0.68400000,-0.02500000,0.72600000,-0.03000000,-0.16000000,-0.05000000,-0.05490806,-0.09546012,-0.09050658,-2.32000000,-43.42000000,0.04000000
397,0,0.68900000,-0.03100000,0.72200000,-0.20000000,-0.11000000,-0.06000000,-0.06659903,-0.10189015,-0.09401387,-2.32000000,-43.42000000,0.04000000
398,0,0.68600000,-0.03200000,0.72700000,-0.02000000,-0.21000000,0.20000000,-0.06661979,-0.10210812,-0.09380628,-2.32000000,-43.43000000,0.05000000
399,0,0.68600000,-0.02600000,0.72400000,0.06000000,-0.14000000,0.24000000,-0.06656046,-0.10224656,-0.09356896,-2.32000000,-43.43000000,0.05000000
400,0,0.69000000,-0.02900000,0.73000000,-0.01000000,-0.01000000,0.09000000,-0.06657032,-0.10225641,-0.09348025,-2.32000000,-43.43000000,0.05000000
401,0,0.68700000,-0.03100000,0.72800000,0.12000000,-0.16000000,0.15000000,-0.06644840,-0.10241897,-0.09332785,-2.32000000,-43.43000000,0.05000000
402,0,0.68400000,-0.02900000,0.72300000,-0.07000000,0.15000000,-0.09000000,-0.06651823,-0.10226933,-0.09341764,-2.32000000,-43.43000000,0.05000000
403,0,0.68500000,-0.03100000,0.72800000,-0.05000000,-0.09000000,0.11000000,-0.06656783,-0.10235860,-0.09330852,-2.32000000,-43.43000000,0.05000000
404,0,0.68600000,-0.02800000,0.72500000,-0.09000000,-0.11000000,-0.32000000,-0.07177111,-0.10871816,-0.11180908,-2.32000000,-43.43000000,0.05000000
405,0,0.68700000,-0.02900000,0.72500000,0.12000000,0.33000000,0.01000000,-0.07164298,-0.10836581,-0.11179840,-2.32000000,-43.43000000,0.05000000
406,0,0.68600000,-0.03700000,0.72200000,0.08000000,0.15000000,0.02000000,-0.07156252,-0.10821495,-0.11177828,-2.32000000,-43.43000000,0.05000000
407,0,0.68600000,-0.03200000,0.73000000,-0.10000000,-0.00000000,0.06000000,-0.07166200,-0.10821495,-0.11171860,-2.32000000,-43.43000000,0.05000000
408,0,0.68900000,-0.02800000,0.72600000,-0.09000000,-0.08000000,0.10000000,-0.07175721,-0.10829958,-0.11161280,-2.32000000,-43.43000000,0.05000000
409,0,0.69000000,-0.02200000,0.72400000,-0.01000000,0.00000000,0.02000000,-0.07176749,-0.10829958,-0.11159225,-2.32000000,-43.43000000,0.05000000
410,0,0.68500000,-0.03000000,0.72400000,0.01000000,0.03000000,-0.10000000,-0.07122581,-0.10667456,-0.11700901,-2.32000000,-43.43000000,0.05000000
411,0,0.68800000,-0.02800000,0.72500000,-0.09000000,0.02000000,-0.05000000,-0.07131914,-0.10665382,-0.11706086,-2.32000000,-43.43000000,0.05000000
412,0,0.68600000,-0.02800000,0.72800000,-0.17000000,-0.03000000,-0.04000000,-0.07157199,-0.10669844,-0.11712035,-2.32000000,-43.43000000,0.05000000
413,0,0.68700000,-0.03000000,0.72700000,-0.07000000,-0.37000000,0.08000000,-0.07164613,-0.10709033,-0.11703562,-2.32000000,-43.43000000,0.05000000
414,0,0.68700000,-0.02400000,0.72800000,0.07000000,-0.15000000,-0.14000000,-0.07157353,-0.10724591,-0.11718083,-2.32000000,-43.43000000,0.05000000
415,0,0.68800000,-0.02900000,0.72600000,0.05000000,0.03000000,0.11000000,-0.07152294,-0.10721556,-0.11706954,-2.32000000,-43.43000000,0.05000000
416,0,0.68700000,-0.03400000,0.72500000,-0.07000000,-0.17000000,0.04000000,-0.07536498,-0.11654621,-0.11487409,-2.32000000,-43.43000000,0.05000000
417,0,0.68500000,-0.02600000,0.72300000,-0.26000000,0.06000000,-0.02000000,-0.07563552,-0.11648378,-0.11489490,-2.32000000,-43.43000000,0.05000000
418,0,0.68600000,-0.03200000,0.72500000,-0.15000000,-0.00000000,-0.15000000,-0.07578617,-0.11648378,-0.11504555,-2.32000000,-43.43000000,0.05000000
419,0,0.68900000,-0.03000000,0.72600000,0.05000000,-0.09000000,0.09000000,-0.07573640,-0.11657337,-0.11495596,-2.32000000,-43.43000000,0.05000000
420,0,0.68600000,-0.03200000,0.72400000,0.05000000,0.08000000,-0.27000000,-0.07568684,-0.11649408,-0.11522358,-2.32000000,-43.43000000,0.04000000
421,0,0.68700000,-0.03000000,0.73000000,-0.01000000,-0.03000000,0.17000000,-0.07569680,-0.11652396,-0.11505427,-2.32000000,-43.43000000,0.05000000
422,0,0.68700000,-0.02500000,0.72600000,-0.17000000,0.03000000,-0.12000000,-0.08530525,-0.11482835,-0.12183671,-2.32000000,-43.43000000,0.04000000
423,0,0.68900000,-0.02800000,0.72800000,-0.04000000,0.03000000,-0.03000000,-0.08534748,-0.11479668,-0.12186837,-2.31000000,-43.43000000,0.04000000
424,0,0.68900000,-0.03200000,0.72600000,0.15000000,0.17000000,0.02000000,-0.08519765,-0.11462688,-0.12184840,-2.31000000,-43.42000000,0.04000000
425,0,0.68700000,-0.03300000,0.72100000,0.17000000,0.18000000,-0.14000000,-0.08502862,-0.11444790,-0.12198760,-2.31000000,-43.42000000,0.04000000
426,0,0.69000000,-0.02700000,0.72800000,0.10000000,-0.20000000,0.16000000,-0.08492928,-0.11464657,-0.12182866,-2.31000000,-43.42000000,0.04000000
427,0,0.68400000,-0.03100000,0.72800000,-0.04000000,0.21000000,-0.20000000,-0.08496894,-0.11443837,-0.12202695,-2.31000000,-43.42000000,0.04000000
428,0,0.68600000,-0.02800000,0.72400000,-0.01000000,0.01000000,-0.03000000,-0.08552410,-0.11388321,-0.12369244,-2.31000000,-43.42000000,0.04000000
429,0,0.69000000,-0.02700000,0.72600000,-0.00000000,-0.05000000,-0.02000000,-0.08552410,-0.11393565,-0.12371341,-2.31000000,-43.42000000,0.04000000
430,0,0.68700000,-0.02400000,0.71900000,0.08000000,0.09000000,-0.01000000,-0.08544419,-0.11384576,-0.12372340,-2.32000000,-43.42000000,0.04000000
431,0,0.68700000,-0.02700000,0.72500000,-0.06000000,0.08000000,-0.05000000,-0.08550364,-0.11376650,-0.12377294,-2.31000000,-43.43000000,0.04000000
432,0,0.68600000,-0.02800000,0.72200000,0.12000000,-0.11000000,-0.11000000,-0.08538481,-0.11387543,-0.12388187,-2.31000000,-43.43000000,0.04000000
433,0,0.68700000,-0.03100000,0.72200000,0.33000000,0.03000000,-0.04000000,-0.08505731,-0.11384565,-0.12392156,-2.31000000,-43.43000000,0.04000000
434,0,0.69200000,-0.02600000,0.72700000,0.21000000,0.03000000,-0.03000000,-0.07339192,-0.11217917,-0.12558805,-2.31000000,-43.43000000,0.04000000
435,0,0.68400000,-0.03100000,0.72900000,-0.12000000,-0.12000000,-0.05000000,-0.07351808,-0.11230533,-0.12564061,-2.31000000,-43.43000000,0.04000000
436,0,0.68500000,-0.03100000,0.71800000,0.02000000,0.03000000,-0.03000000,-0.07349814,-0.11227542,-0.12567052,-2.31000000,-43.43000000,0.04000000
437,0,0.69100000,-0.02800000,0.72700000,-0.01000000,-0.15000000,0.12000000,-0.07350801,-0.11242345,-0.12555209,-2.31000000,-43.43000000,0.04000000
438,0,0.68600000,-0.03000000,0.72500000,0.01000000,0.04000000,-0.03000000,-0.07349813,-0.11238395,-0.12558172,-2.31000000,-43.43000000,0.04000000
439,0,0.69200000,-0.02900000,0.71800000,0.11000000,-0.02000000,0.13000000,-0.07338928,-0.11240374,-0.12545308,-2.31000000,-43.43000000,0.04000000
440,0,0.68500000,-0.02200000,0.72600000,0.01000000,0.03000000,0.12000000,-0.07282365,-0.11070684,-0.11866549,-2.31000000,-43.43000000,0.04000000
441,0,0.68000000,-0.02800000,0.72400000,0.12000000,-0.02000000,0.02000000,-0.07269987,-0.11072747,-0.11864486,-2.31000000,-43.43000000,0.04000000
442,0,0.68900000,-0.02800000,0.72300000,-0.10000000,0.18000000,0.21000000,-0.07280011,-0.11054704,-0.11843435,-2.31000000,-43.42000000,0.04000000
443,0,0.68800000,-0.03200000,0.72800000,-0.04000000,-0.05000000,0.15000000,-0.07284040,-0.11059740,-0.11828328,-2.31000000,-43.42000000,0.04000000
444,0,0.69000000,-0.02900000,0.72700000,-0.00000000,0.07000000,-0.03000000,-0.07284040,-0.11052813,-0.11831296,-2.31000000,-43.42000000,0.04000000
445,0,0.68900000,-0.02900000,0.72300000,-0.10000000,0.00000000,-0.03000000,-0.07294050,-0.11052813,-0.11834299,-2.31000000,-43.42000000,0.04000000
446,0,0.68500000,-0.02500000,0.73000000,0.23000000,-0.10000000,-0.12000000,-0.06015978,-0.11608496,-0.12501119,-2.31000000,-43.42000000,0.04000000
447,0,0.68900000,-0.03100000,0.73100000,0.05000000,0.15000000,0.17000000,-0.06010616,-0.11592409,-0.12482886,-2.31000000,-43.42000000,0.04000000
448,0,0.68300000,-0.03100000,0.72400000,0.19000000,0.21000000,-0.01000000,-0.05991303,-0.11571062,-0.12483903,-2.31000000,-43.42000000,0.04000000
449,0,0.68900000,-0.03000000,0.72500000,0.13000000,0.03000000,-0.20000000,-0.05978070,-0.11568009,-0.12504261,-2.31000000,-43.42000000,0.04000000
450,0,0.68400000,-0.02500000,0.72200000,0.25000000,0.04000000,0.07000000,-0.05953224,-0.11564033,-0.12497304,-2.31000000,-43.42000000,0.04000000
451,0,0.68700000,-0.03300000,0.72300000,0.05000000,0.06000000,0.24000000,-0.05948206,-0.11558012,-0.12473218,-2.31000000,-43.42000000,0.04000000
452,0,0.68500000,-0.02700000,0.72700000,0.05000000,-0.16000000,-0.02000000,-0.05670660,-0.12446159,-0.12584236,-2.31000000,-43.42000000,0.04000000
453,0,0.68800000,-0.02700000,0.72700000,0.18000000,0.04000000,-0.08000000,-0.05651883,-0.12441986,-0.12592581,-2.31000000,-43.42000000,0.04000000
454,0,0.68300000,-0.02900000,0.72800000,0.17000000,0.00000000,-0.25000000,-0.05635077,-0.12441986,-0.12617296,-2.30000000,-43.42000000,0.04000000
455,0,0.68300000,-0.03000000,0.72900000,0.14000000,-0.11000000,0.11000000,-0.05621243,-0.12452855,-0.12606427,-2.30000000,-43.42000000,0.04000000
456,0,0.68400000,-0.02900000,0.72500000,0.02000000,0.07000000,0.01000000,-0.05619270,-0.12445950,-0.12605441,-2.31000000,-43.42000000,0.04000000
457,0,0.68600000,-0.02900000,0.72600000,0.15000000,-0.22000000,-0.02000000,-0.05604112,-0.12468182,-0.12607462,-2.31000000,-43.42000000,0.04000000
458,0,0.69000000,-0.03200000,0.72700000,0.15000000,0.06000000,-0.04000000,-0.04757380,-0.12129489,-0.12833257,-2.31000000,-43.42000000,0.04000000
459,0,0.68600000,-0.02900000,0.72600000,0.07000000,-0.22000000,-0.08000000,-0.04749935,-0.12152890,-0.12841766,-2.30000000,-43.42000000,0.04000000
460,0,0.69200000,-0.02700000,0.72500000,-0.00000000,0.12000000,0.21000000,-0.04749935,-0.12140767,-0.12820550,-2.30000000,-43.42000000,0.04000000
461,0,0.68500000,-0.03300000,0.72300000,0.09000000,-0.08000000,-0.13000000,-0.04739894,-0.12149692,-0.12835054,-2.30000000,-43.42000000,0.04000000
462,0,0.68900000,-0.03300000,0.72600000,-0.08000000,0.06000000,-0.37000000,-0.04747917,-0.12143675,-0.12872161,-2.30000000,-43.42000000,0.04000000
463,0,0.68500000,-0.02700000,0.72300000,-0.06000000,0.12000000,0.04000000,-0.04753860,-0.12131789,-0.12868199,-2.30000000,-43.42000000,0.04000000
464,0,0.69000000,-0.03000000,0.72200000,-0.02000000,-0.01000000,0.07000000,-0.04864592,-0.12187155,-0.12480636,-2.30000000,-43.42000000,0.04000000
465,0,0.68200000,-0.02900000,0.72800000,0.01000000,0.15000000,0.15000000,-0.04863552,-0.12171561,-0.12465042,-2.30000000,-43.42000000,0.04000000
466,0,0.68500000,-0.03100000,0.72700000,0.11000000,-0.15000000,-0.02000000,-0.04852647,-0.12186432,-0.12467025,-2.30000000,-43.42000000,0.04000000
467,0,0.69300000,-0.02400000,0.72100000,0.08000000,-0.15000000,0.03000000,-0.04844530,-0.12201651,-0.12463981,-2.30000000,-43.42000000,0.04000000
468,0,0.68400000,-0.03000000,0.72600000,-0.11000000,0.18000000,-0.07000000,-0.04855766,-0.12183264,-0.12471131,-2.30000000,-43.42000000,0.04000000
469,0,0.68300000,-0.03200000,0.72300000,0.05000000,0.25000000,0.27000000,-0.04850765,-0.12158258,-0.12444124,-2.30000000,-43.42000000,0.04000000
470,0,0.68900000,-0.02800000,0.72600000,0.06000000,0.16000000,0.13000000,-0.04516244,-0.11266200,-0.11719328,-2.30000000,-43.42000000,0.04000000
471,0,0.68900000,-0.03500000,0.72900000,0.26000000,0.07000000,-0.04000000,-0.04488557,-0.11258746,-0.11723587,-2.30000000,-43.42000000,0.04000000
472,0,0.69300000,-0.03000000,0.72500000,0.03000000,-0.04000000,0.02000000,-0.04485569,-0.11262730,-0.11721595,-2.30000000,-43.42000000,0.04000000
473,0,0.68400000,-0.02500000,0.72200000,0.01000000,0.07000000,0.29000000,-0.04484563,-0.11255692,-0.11692435,-2.30000000,-43.42000000,0.04000000
474,0,0.68500000,-0.02800000,0.72700000,0.08000000,0.03000000,-0.16000000,-0.04476622,-0.11252714,-0.11708318,-2.30000000,-43.42000000,0.04000000
475,0,0.68400000,-0.02900000,0.72500000,0.06000000,0.43000000,-0.11000000,-0.04470656,-0.11209958,-0.11719255,-2.30000000,-43.42000000,0.04000000
476,0,0.68700000,-0.03000000,0.72700000,0.16000000,-0.03000000,-0.19000000,-0.03569924,-0.11378846,-0.12788874,-2.30000000,-43.42000000,0.04000000
477,0,0.68700000,-0.03200000,0.72600000,-0.21000000,0.00000000,0.14000000,-0.03591631,-0.11378846,-0.12774403,-2.30000000,-43.42000000,0.04000000
478,0,0.68400000,-0.03200000,0.72700000,-0.08000000,0.07000000,-0.10000000,-0.03599526,-0.11371937,-0.12784272,-2.30000000,-43.42000000,0.04000000
479,0,0.68500000,-0.02700000,0.72900000,-0.03000000,-0.23000000,0.03000000,-0.03602565,-0.11395234,-0.12781233,-2.30000000,-43.42000000,0.04000000
480,0,0.69100000,-0.02400000,0.72200000,0.06000000,0.22000000,-0.02000000,-0.03596511,-0.11373034,-0.12783252,-2.30000000,-43.42000000,0.04000000
481,0,0.68700000,-0.02800000,0.72800000,0.04000000,0.13000000,-0.09000000,-0.03592516,-0.11360052,-0.12792239,-2.30000000,-43.42000000,0.04000000
482,0,0.68400000,-0.03000000,0.73000000,0.06000000,-0.13000000,0.24000000,-0.03259681,-0.12081194,-0.11460900,-2.30000000,-43.42000000,0.04000000
483,0,0.68700000,-0.02800000,0.72800000,0.07000000,0.07000000,-0.12000000,-0.03252422,-0.12073935,-0.11473343,-2.30000000,-43.42000000,0.04000000
484,0,0.68800000,-0.02600000,0.72800000,0.05000000,0.22000000,-0.14000000,-0.03247490,-0.12052234,-0.11487154,-2.30000000,-43.42000000,0.04000000
485,0,0.69000000,-0.03000000,0.72300000,-0.07000000,-0.00000000,-0.21000000,-0.03254519,-0.12052234,-0.11508239,-2.29000000,-43.42000000,0.04000000
486,0,0.69100000,-0.02900000,0.72600000,0.11000000,-0.03000000,0.35000000,-0.03243574,-0.12055219,-0.11473413,-2.30000000,-43.42000000,0.04000000
487,0,0.69200000,-0.02400000,0.72500000,-0.05000000,-0.12000000,-0.26000000,-0.03248532,-0.12067119,-0.11499197,-2.29000000,-43.42000000,0.04000000
488,0,0.68700000,-0.03400000,0.72600000,0.06000000,0.00000000,0.03000000,-0.02914322,-0.12067119,-0.11332092,-2.29000000,-43.42000000,0.04000000
489,0,0.69000000,-0.02400000,0.72500000,0.16000000,0.10000000,0.11000000,-0.02897792,-0.12056787,-0.11320728,-2.29000000,-43.42000000,0.04000000
490,0,0.68800000,-0.03100000,0.72400000,0.02000000,0.07000000,0.13000000,-0.02895787,-0.12049770,-0.11307696,-2.30000000,-43.42000000,0.04000000
491,0,0.69000000,-0.03000000,0.72600000,-0.22000000,-0.11000000,-0.06000000,-0.02918113,-0.12060933,-0.11313785,-2.30000000,-43.42000000,0.04000000
492,0,0.68800000,-0.02200000,0.72300000,0.04000000,0.09000000,0.07000000,-0.02914139,-0.12051993,-0.11306832,-2.30000000,-43.42000000,0.05000000
493,0,0.68400000,-0.03000000,0.72000000,0.19000000,-0.06000000,-0.10000000,-0.02893911,-0.12058381,-0.11317478,-2.30000000,-43.42000000,0.05000000
494,0,0.69000000,-0.02900000,0.71800000,-0.13000000,-0.03000000,-0.10000000,-0.03629026,-0.12228023,-0.11882951,-2.30000000,-43.43000000,0.05000000
495,0,0.68500000,-0.02800000,0.72600000,0.07000000,0.08000000,0.16000000,-0.03615690,-0.12212782,-0.11852470,-2.30000000,-43.42000000,0.05000000
496,0,0.68600000,-0.02800000,0.72200000,-0.06000000,-0.00000000,-0.07000000,-0.03622320,-0.12212782,-0.11860204,-2.30000000,-43.42000000,0.05000000
497,0,0.68400000,-0.03000000,0.72400000,0.04000000,-0.24000000,0.29000000,-0.03618023,-0.12238563,-0.11829053,-2.30000000,-43.43000000,0.05000000
498,0,0.68400000,-0.02700000,0.72800000,-0.11000000,-0.13000000,0.06000000,-0.03629113,-0.12251668,-0.11823004,-2.30000000,-43.42000000,0.05000000
499,0,0.68800000,-0.02900000,0.72900000,0.05000000,-0.07000000,-0.10000000,-0.03623888,-0.12258982,-0.11833453,-2.30000000,-43.42000000,0.05000000
500,0,0.69000000,-0.02700000,0.72100000,-0.07000000,0.02000000,0.18000000,-0.04003475,-0.12150529,-0.10857371,-2.30000000,-43.42000000,0.05000000
501,0,0.69000000,-0.02800000,0.72400000,0.06000000,0.16000000,-0.17000000,-0.03996691,-0.12132438,-0.10876593,-2.30000000,-43.42000000,0.05000000
502,0,0.68700000,-0.02700000,0.72300000,0.41000000,-0.12000000,0.10000000,-0.03954752,-0.12144713,-0.10866364,-2.30000000,-43.42000000,0.05000000
503,0,0.68800000,-0.02700000,0.72600000,-0.01000000,-0.18000000,-0.13000000,-0.03955755,-0.12162765,-0.10879401,-2.30000000,-43.42000000,0.05000000
504,0,0.68900000,-0.03200000,0.72200000,-0.21000000,0.06000000,0.08000000,-0.03976640,-0.12156798,-0.10871445,-2.30000000,-43.42000000,0.05000000
505,0,0.69200000,-0.02900000,0.72700000,0.02000000,0.19000000,0.06000000,-0.03974656,-0.12137951,-0.10865494,-2.30000000,-43.42000000,0.05000000
506,0,0.68700000,-0.02900000,0.72900000,0.08000000,-0.14000000,0.28000000,-0.03530045,-0.12916021,-0.09309354,-2.30000000,-43.42000000,0.05000000
507,0,0.68800000,-0.02900000,0.72200000,-0.06000000,0.18000000,-0.28000000,-0.03536261,-0.12897373,-0.09338362,-2.30000000,-43.42000000,0.05000000
508,0,0.68800000,-0.03200000,0.72100000,0.02000000,0.15000000,0.09000000,-0.03534254,-0.12882322,-0.09329332,-2.30000000,-43.42000000,0.05000000
509,0,0.68600000,-0.02900000,0.72100000,0.07000000,0.17000000,0.08000000,-0.03527286,-0.12865399,-0.09321368,-2.30000000,-43.42000000,0.05000000
510,0,0.69100000,-0.03000000,0.72400000,-0.16000000,0.06000000,0.07000000,-0.03543179,-0.12859438,-0.09314415,-2.30000000,-43.42000000,0.05000000
511,0,0.68800000,-0.03100000,0.72900000,-0.27000000,0.08000000,-0.00000000,-0.03569936,-0.12851511,-0.09314415,-2.30000000,-43.42000000,0.05000000
512,0,0.69000000,-0.03000000,0.72800000,0.08000000,-0.07000000,-0.16000000,-0.03119497,-0.13245644,-0.10215291,-2.30000000,-43.42000000,0.05000000
513,0,0.68200000,-0.02700000,0.72400000,0.03000000,0.09000000,-0.14000000,-0.03116369,-0.13236260,-0.10229889,-2.30000000,-43.42000000,0.05000000
514,0,0.68600000,-0.02600000,0.72500000,-0.16000000,0.01000000,0.13000000,-0.03132248,-0.13235267,-0.10216988,-2.30000000,-43.42000000,0.04000000
515,0,0.68700000,-0.02900000,0.72200000,-0.06000000,0.02000000,-0.03000000,-0.03138178,-0.13233291,-0.10219953,-2.30000000,-43.42000000,0.05000000
516,0,0.68700000,-0.03200000,0.72800000,0.08000000,0.13000000,0.16000000,-0.03130267,-0.13220436,-0.10204132,-2.30000000,-43.42000000,0.05000000
517,0,0.69300000,-0.03000000,0.72200000,-0.14000000,0.02000000,-0.21000000,-0.03144297,-0.13218432,-0.10225178,-2.30000000,-43.43000000,0.05000000
518,0,0.68400000,-0.03400000,0.72300000,0.10000000,0.24000000,-0.07000000,-0.02589062,-0.11885868,-0.10613842,-2.30000000,-43.42000000,0.05000000
519,0,0.68900000,-0.02900000,0.72600000,0.17000000,-0.12000000,0.17000000,-0.02570607,-0.11898895,-0.10595387,-2.30000000,-43.42000000,0.05000000
520,0,0.68700000,-0.03100000,0.72400000,0.05000000,-0.35000000,0.14000000,-0.02565554,-0.11934263,-0.10581239,-2.30000000,-43.42000000,0.05000000
521,0,0.69100000,-0.03000000,0.72300000,0.13000000,0.15000000,0.05000000,-0.02552721,-0.11919456,-0.10576303,-2.30000000,-43.43000000,0.05000000
522,0,0.68300000,-0.02800000,0.72300000,-0.16000000,-0.20000000,-0.14000000,-0.02568554,-0.11939247,-0.10590157,-2.30000000,-43.43000000,0.05000000
523,0,0.69100000,-0.03000000,0.72600000,-0.27000000,-0.08000000,-0.05000000,-0.02595638,-0.11947272,-0.10595173,-2.30000000,-43.43000000,0.05000000
524,0,0.69700000,-0.02800000,0.72600000,0.13000000,-0.11000000,-0.10000000,-0.01833735,-0.12591959,-0.11181252,-2.30000000,-43.43000000,0.05000000
525,0,0.68800000,-0.02900000,0.72200000,-0.25000000,-0.02000000,-0.20000000,-0.01859940,-0.12594055,-0.11202216,-2.30000000,-43.43000000,0.05000000
526,0,0.68900000,-0.02900000,0.72400000,0.11000000,-0.18000000,-0.15000000,-0.01848832,-0.12612232,-0.11217363,-2.30000000,-43.43000000,0.04000000
527,0,0.68800000,-0.02900000,0.72700000,0.13000000,0.09000000,-0.16000000,-0.01835897,-0.12603277,-0.11233283,-2.30000000,-43.43000000,0.04000000
528,0,0.68500000,-0.03000000,0.72400000,0.01000000,0.08000000,0.17000000,-0.01834896,-0.12595269,-0.11216266,-2.30000000,-43.43000000,0.04000000
529,0,0.68900000,-0.02600000,0.72800000,0.05000000,-0.11000000,0.13000000,-0.01829960,-0.12606128,-0.11203433,-2.30000000,-43.43000000,0.05000000
530,0,0.69000000,-0.02500000,0.72500000,0.07000000,0.09000000,-0.15000000,-0.01822880,-0.12597024,-0.11218605,-2.30000000,-43.43000000,0.05000000
531,0,0.68600000,-0.02900000,0.72700000,0.21000000,0.01000000,0.03000000,-0.00638376,-0.12540619,-0.11049391,-2.30000000,-43.43000000,0.04000000
532,0,0.68600000,-0.02900000,0.72300000,0.10000000,-0.03000000,0.09000000,-0.00628052,-0.12543717,-0.11040099,-2.30000000,-43.43000000,0.04000000
533,0,0.68600000,-0.02700000,0.72600000,-0.06000000,-0.08000000,-0.06000000,-0.00634022,-0.12551677,-0.11046069,-2.30000000,-43.43000000,0.04000000
534,0,0.68500000,-0.03000000,0.72700000,-0.06000000,0.02000000,0.06000000,-0.00639932,-0.12549707,-0.11040159,-2.30000000,-43.43000000,0.04000000
535,0,0.68800000,-0.02900000,0.72700000,0.00000000,0.09000000,0.02000000,-0.00639932,-0.12540681,-0.11038153,-2.30000000,-43.43000000,0.04000000
536,0,0.68900000,-0.02500000,0.72300000,-0.16000000,-0.06000000,-0.01000000,-0.00655917,-0.12546675,-0.11039152,-2.30000000,-43.43000000,0.04000000
537,0,0.68700000,-0.02600000,0.72200000,-0.12000000,-0.04000000,-0.02000000,-0.01322806,-0.12768971,-0.11150300,-2.30000000,-43.43000000,0.04000000
538,0,0.68800000,-0.03100000,0.72200000,-0.00000000,-0.25000000,0.10000000,-0.01322806,-0.12795003,-0.11139887,-2.30000000,-43.43000000,0.04000000
539,0,0.68600000,-0.02900000,0.72500000,-0.26000000,-0.12000000,0.11000000,-0.01348565,-0.12806892,-0.11128989,-2.30000000,-43.43000000,0.04000000
540,0,0.69000000,-0.03300000,0.72100000,0.09000000,0.11000000,0.10000000,-0.01339687,-0.12796041,-0.11119125,-2.30000000,-43.43000000,0.04000000
541,0,0.68600000,-0.03000000,0.72600000,-0.04000000,0.22000000,-0.33000000,-0.01343902,-0.12772861,-0.11153896,-2.30000000,-43.43000000,0.04000000
542,0,0.68800000,-0.03000000,0.72700000,-0.18000000,0.23000000,-0.21000000,-0.01362121,-0.12749580,-0.11175152,-2.30000000,-43.43000000,0.04000000
543,0,0.68900000,-0.02800000,0.72400000,0.13000000,-0.01000000,0.04000000,-0.00640229,-0.12805110,-0.10953031,-2.30000000,-43.43000000,0.04000000
544,0,0.68700000,-0.02600000,0.72500000,0.16000000,-0.28000000,0.10000000,-0.00622653,-0.12835868,-0.10942046,-2.30000000,-43.43000000,0.04000000
545,0,0.68700000,-0.02500000,0.72500000,-0.31000000,0.14000000,0.09000000,-0.00654156,-0.12821641,-0.10932900,-2.30000000,-43.43000000,0.04000000
546,0,0.68900000,-0.03000000,0.72400000,0.01000000,0.05000000,0.02000000,-0.00653149,-0.12816606,-0.10930886,-2.30000000,-43.43000000,0.04000000
547,0,0.68800000,-0.02900000,0.72700000,-0.14000000,0.08000000,0.40000000,-0.00667300,-0.12808520,-0.10890456,-2.30000000,-43.43000000,0.04000000
548,0,0.69400000,-0.02800000,0.72300000,-0.15000000,-0.09000000,0.02000000,-0.00682647,-0.12817728,-0.10888410,-2.30000000,-43.43000000,0.04000000
549,0,0.68700000,-0.02700000,0.72200000,0.16000000,-0.22000000,-0.22000000,0.00218222,-0.14056423,-0.12127105,-2.30000000,-43.43000000,0.04000000
550,0,0.68300000,-0.03200000,0.72300000,0.13000000,-0.02000000,-0.11000000,0.00231665,-0.14058492,-0.12138480,-2.30000000,-43.43000000,0.04000000
551,0,0.68600000,-0.02900000,0.72400000,-0.03000000,0.04000000,0.06000000,0.00228700,-0.14054537,-0.12132549,-2.30000000,-43.43000000,0.04000000
552,0,0.68700000,-0.02800000,0.72900000,-0.14000000,-0.12000000,-0.24000000,0.00214572,-0.14066646,-0.12156767,-2.30000000,-43.43000000,0.04000000
553,0,0.68900000,-0.02900000,0.72800000,-0.15000000,0.06000000,-0.10000000,0.00199601,-0.14060658,-0.12166748,-2.30000000,-43.43000000,0.04000000
554,0,0.68400000,-0.03200000,0.73000000,-0.06000000,-0.02000000,0.09000000,0.00193593,-0.14062660,-0.12157737,-2.30000000,-43.43000000,0.04000000
555,0,0.68400000,-0.02900000,0.72300000,-0.12000000,0.03000000,-0.10000000,-0.00472943,-0.13896026,-0.12713184,-2.30000000,-43.43000000,0.04000000
556,0,0.69200000,-0.02600000,0.72600000,-0.22000000,-0.30000000,-0.30000000,-0.00496838,-0.13928609,-0.12745767,-2.30000000,-43.43000000,0.04000000
557,0,0.69100000,-0.03500000,0.72800000,0.25000000,0.03000000,-0.07000000,-0.00471491,-0.13925567,-0.12752864,-2.30000000,-43.43000000,0.04000000
558,0,0.68500000,-0.02800000,0.72500000,0.05000000,0.03000000,-0.06000000,-0.00466408,-0.13922517,-0.12758964,-2.30000000,-43.43000000,0.04000000
559,0,0.68900000,-0.02700000,0.72800000,-0.17000000,0.06000000,0.24000000,-0.00483384,-0.13916526,-0.12734998,-2.30000000,-43.43000000,0.04000000
560,0,0.69000000,-0.02700000,0.72800000,0.10000000,0.21000000,0.02000000,-0.00473372,-0.13895500,-0.12732996,-2.30000000,-43.43000000,0.04000000
561,0,0.68600000,-0.02800000,0.72600000,-0.05000000,-0.16000000,-0.22000000,-0.00751502,-0.14785516,-0.13956768,-2.30000000,-43.43000000,0.04000000
562,0,0.69000000,-0.03300000,0.73100000,-0.09000000,-0.13000000,0.15000000,-0.00760931,-0.14799137,-0.13941052,-2.30000000,-43.43000000,0.04000000
563,0,0.68300000,-0.02800000,0.72400000,0.07000000,0.24000000,0.05000000,-0.00753874,-0.14774941,-0.13936012,-2.30000000,-43.43000000,0.04000000
564,0,0.68400000,-0.02900000,0.72500000,-0.14000000,0.16000000,0.07000000,-0.00768038,-0.14758754,-0.13928930,-2.30000000,-43.43000000,0.04000000
565,0,0.68700000,-0.03100000,0.72300000,0.19000000,-0.10000000,0.12000000,-0.00749024,-0.14768761,-0.13916921,-2.30000000,-43.43000000,0.05000000
566,0,0.68300000,-0.03100000,0.72400000,0.00000000,-0.01000000,0.17000000,-0.00749024,-0.14769764,-0.13899871,-2.30000000,-43.43000000,0.05000000
567,0,0.68400000,-0.02700000,0.72300000,-0.20000000,-0.29000000,-0.04000000,-0.01875086,-0.16402555,-0.14125084,-2.30000000,-43.43000000,0.05000000
568,0,0.69200000,-0.02600000,0.72400000,-0.05000000,0.01000000,0.02000000,-0.01880274,-0.16401517,-0.14123009,-2.30000000,-43.43000000,0.04000000
569,0,0.69000000,-0.02700000,0.72400000,-0.09000000,0.00000000,-0.03000000,-0.01889308,-0.16401517,-0.14126021,-2.30000000,-43.43000000,0.04000000
570,0,0.68900000,-0.03400000,0.72600000,-0.03000000,-0.12000000,-0.04000000,-0.01892309,-0.16413521,-0.14130022,-2.30000000,-43.43000000,0.05000000
571,0,0.68700000,-0.02600000,0.72500000,-0.03000000,0.04000000,-0.07000000,-0.01895291,-0.16409544,-0.14136980,-2.30000000,-43.43000000,0.04000000
572,0,0.69000000,-0.03300000,0.72300000,0.22000000,0.22000000,0.06000000,-0.01872305,-0.16386558,-0.14130711,-2.30000000,-43.43000000,0.04000000
573,0,0.68300000,-0.02800000,0.72400000,0.16000000,-0.02000000,0.16000000,-0.00983128,-0.16497705,-0.13241534,-2.30000000,-43.43000000,0.04000000
574,0,0.69000000,-0.02800000,0.72700000,-0.27000000,-0.19000000,0.05000000,-0.01011171,-0.16517439,-0.13236341,-2.30000000,-43.43000000,0.05000000
575,0,0.68900000,-0.03200000,0.72800000,0.03000000,0.10000000,-0.17000000,-0.01008155,-0.16507384,-0.13253434,-2.30000000,-43.43000000,0.05000000
576,0,0.68600000,-0.03100000,0.72300000,0.11000000,0.01000000,0.33000000,-0.00997070,-0.16506376,-0.13220182,-2.30000000,-43.43000000,0.05000000
577,0,0.69200000,-0.03200000,0.72800000,-0.21000000,-0.01000000,-0.01000000,-0.01018457,-0.16507395,-0.13221200,-2.30000000,-43.43000000,0.05000000
578,0,0.68900000,-0.03300000,0.72500000,0.22000000,0.07000000,0.16000000,-0.00994814,-0.16499872,-0.13204006,-2.30000000,-43.43000000,0.05000000
579,0,0.68600000,-0.03400000,0.72100000,-0.00000000,0.04000000,0.17000000,-0.00994814,-0.16277656,-0.12259587,-2.31000000,-43.43000000,0.05000000
580,0,0.68700000,-0.02900000,0.72400000,-0.36000000,0.05000000,-0.04000000,-0.01032292,-0.16272451,-0.12263751,-2.31000000,-43.43000000,0.05000000
581,0,0.68400000,-0.02800000,0.73100000,-0.26000000,-0.02000000,0.13000000,-0.01058385,-0.16274458,-0.12250705,-2.31000000,-43.43000000,0.05000000
582,0,0.68600000,-0.02900000,0.72900000,-0.06000000,-0.01000000,0.16000000,-0.01064365,-0.16275455,-0.12234758,-2.31000000,-43.43000000,0.05000000
583,0,0.68900000,-0.03200000,0.72400000,-0.03000000,0.13000000,-0.04000000,-0.01067325,-0.16262631,-0.12238703,-2.31000000,-43.43000000,0.05000000
584,0,0.69200000,-0.03000000,0.72600000,0.17000000,-0.17000000,-0.14000000,-0.01050336,-0.16279619,-0.12252694,-2.31000000,-43.43000000,0.05000000
585,0,0.69000000,-0.02900000,0.72600000,-0.15000000,0.11000000,-0.10000000,-0.01894848,-0.15660311,-0.12815701,-2.31000000,-43.43000000,0.05000000
586,0,0.68500000,-0.02800000,0.72300000,-0.14000000,-0.01000000,-0.21000000,-0.01909649,-0.15661369,-0.12837903,-2.31000000,-43.43000000,0.05000000
587,0,0.68800000,-0.02900000,0.72400000,-0.22000000,0.06000000,0.42000000,-0.01932966,-0.15655009,-0.12793389,-2.31000000,-43.43000000,0.05000000
588,0,0.68200000,-0.02700000,0.72500000,-0.00000000,0.12000000,0.01000000,-0.01932966,-0.15643106,-0.12792397,-2.31000000,-43.43000000,0.05000000
589,0,0.68400000,-0.03000000,0.72700000,0.02000000,0.02000000,0.01000000,-0.01930995,-0.15641135,-0.12791411,-2.31000000,-43.43000000,0.05000000
590,0,0.68800000,-0.02600000,0.72200000,0.15000000,-0.01000000,0.06000000,-0.01916159,-0.15642124,-0.12785477,-2.31000000,-43.43000000,0.05000000
591,0,0.68200000,-0.02500000,0.72800000,-0.06000000,-0.07000000,-0.16000000,-0.02249049,-0.16030495,-0.13673181,-2.31000000,-43.43000000,0.05000000
592,0,0.68500000,-0.03000000,0.72400000,0.20000000,0.14000000,-0.16000000,-0.02228056,-0.16015800,-0.13689975,-2.31000000,-43.43000000,0.05000000
593,0,0.69100000,-0.02800000,0.72500000,-0.10000000,0.17000000,0.15000000,-0.02238033,-0.15998840,-0.13675011,-2.30000000,-43.43000000,0.05000000
594,0,0.69100000,-0.02700000,0.72600000,0.01000000,0.05000000,0.24000000,-0.02237039,-0.15993870,-0.13651153,-2.30000000,-43.43000000,0.05000000
595,0,0.68800000,-0.02800000,0.72600000,0.10000000,-0.09000000,0.30000000,-0.02227153,-0.16002767,-0.13621495,-2.30000000,-43.43000000,0.05000000
596,0,0.69100000,-0.03000000,0.72500000,-0.03000000,0.06000000,-0.10000000,-0.02230131,-0.15996812,-0.13631422,-2.30000000,-43.43000000,0.05000000
597,0,0.68500000,-0.02800000,0.72700000,-0.04000000,0.17000000,0.12000000,-0.02452989,-0.15049661,-0.12962845,-2.30000000,-43.43000000,0.05000000
598,0,0.68700000,-0.03100000,0.72700000,0.02000000,0.26000000,-0.20000000,-0.02450873,-0.15022142,-0.12984014,-2.30000000,-43.43000000,0.05000000
599,0,0.69100000,-0.02400000,0.72400000,0.00000000,-0.13000000,-0.22000000,-0.02450873,-0.15035186,-0.13006088,-2.30000000,-43.43000000,0.05000000
600,0,0.69200000,-0.03200000,0.72500000,0.14000000,0.30000000,0.07000000,-0.02437062,-0.15005593,-0.12999183,-2.30000000,-43.43000000,0.05000000
601,0,0.68800000,-0.02400000,0.72600000,0.07000000,-0.09000000,0.24000000,-0.02429815,-0.15014910,-0.12974336,-2.30000000,-43.43000000,0.05000000
602,0,0.68900000,-0.03200000,0.72600000,-0.04000000,0.07000000,0.27000000,-0.02433788,-0.15007959,-0.12947522,-2.30000000,-43.43000000,0.05000000
603,0,0.68800000,-0.03000000,0.72500000,-0.02000000,-0.05000000,0.02000000,-0.02546424,-0.15289550,-0.12834885,-2.30000000,-43.43000000,0.05000000
604,0,0.69200000,-0.02900000,0.72100000,0.06000000,-0.10000000,0.07000000,-0.02540195,-0.15299932,-0.12827617,-2.30000000,-43.43000000,0.05000000
605,0,0.68600000,-0.02800000,0.72700000,0.01000000,-0.00000000,0.06000000,-0.02539139,-0.15299932,-0.12821277,-2.30000000,-43.43000000,0.05000000
606,0,0.69000000,-0.03000000,0.72400000,0.14000000,0.02000000,0.15000000,-0.02523095,-0.15297640,-0.12804088,-2.30000000,-43.43000000,0.05000000
607,0,0.69100000,-0.03100000,0.72600000,0.18000000,0.13000000,-0.10000000,-0.02504400,-0.15284138,-0.12814474,-2.30000000,-43.43000000,0.05000000
608,0,0.68800000,-0.03200000,0.72600000,0.09000000,-0.23000000,-0.08000000,-0.02495313,-0.15307358,-0.12822551,-2.30000000,-43.43000000,0.05000000
609,0,0.68700000,-0.03200000,0.72200000,0.25000000,0.25000000,0.09000000,-0.01113789,-0.13925833,-0.12325202,-2.30000000,-43.43000000,0.05000000
610,0,0.69100000,-0.02900000,0.72600000,0.07000000,-0.22000000,-0.38000000,-0.01106491,-0.13948767,-0.12364816,-2.30000000,-43.43000000,0.05000000
611,0,0.69400000,-0.02800000,0.72600000,-0.22000000,-0.20000000,0.16000000,-0.01128272,-0.13968568,-0.12348975,-2.30000000,-43.43000000,0.05000000
612,0,0.68900000,-0.02800000,0.72800000,0.02000000,-0.17000000,0.06000000,-0.01126295,-0.13985369,-0.12343045,-2.30000000,-43.43000000,0.05000000
613,0,0.69100000,-0.02900000,0.72800000,0.06000000,-0.10000000,-0.10000000,-0.01120320,-0.13995327,-0.12353003,-2.30000000,-43.43000000,0.05000000
614,0,0.68800000,-0.02900000,0.72700000,-0.15000000,0.50000000,-0.30000000,-0.01135310,-0.13945361,-0.12382982,-2.30000000,-43.43000000,0.05000000
615,0,0.68800000,-0.03200000,0.72200000,-0.05000000,0.05000000,0.02000000,-0.01418172,-0.13662500,-0.12269837,-2.30000000,-43.43000000,0.05000000
616,0,0.68600000,-0.02700000,0.72600000,-0.19000000,0.13000000,0.13000000,-0.01438246,-0.13648765,-0.12256103,-2.30000000,-43.43000000,0.05000000
617,0,0.68600000,-0.03300000,0.72600000,0.03000000,-0.21000000,-0.04000000,-0.01435241,-0.13669795,-0.12260108,-2.30000000,-43.43000000,0.05000000
618,0,0.68800000,-0.02900000,0.72500000,-0.02000000,-0.03000000,-0.11000000,-0.01437225,-0.13672771,-0.12271020,-2.30000000,-43.43000000,0.05000000
619,0,0.68400000,-0.02800000,0.72800000,-0.10000000,0.13000000,-0.05000000,-0.01447259,-0.13659727,-0.12276036,-2.30000000,-43.43000000,0.05000000
620,0,0.68300000,-0.02700000,0.72700000,-0.09000000,0.20000000,-0.10000000,-0.01456214,-0.13639827,-0.12285987,-2.30000000,-43.43000000,0.05000000
621,0,0.68600000,-0.02900000,0.73000000,-0.05000000,-0.08000000,0.07000000,-0.01733579,-0.14083610,-0.11897676,-2.30000000,-43.43000000,0.05000000
622,0,0.68700000,-0.02800000,0.72400000,0.12000000,0.04000000,-0.02000000,-0.01721078,-0.14079443,-0.11899759,-2.30000000,-43.43000000,0.05000000
623,0,0.68700000,-0.02600000,0.72500000,-0.15000000,-0.03000000,0.11000000,-0.01736068,-0.14082441,-0.11888767,-2.30000000,-43.43000000,0.05000000
624,0,0.68600000,-0.03200000,0.72400000,-0.09000000,-0.07000000,0.12000000,-0.01744984,-0.14089377,-0.11876878,-2.30000000,-43.43000000,0.05000000
625,0,0.69000000,-0.03100000,0.72700000,0.03000000,-0.21000000,0.11000000,-0.01741877,-0.14111128,-0.11865484,-2.30000000,-43.43000000,0.05000000
626,0,0.69000000,-0.02700000,0.72200000,0.10000000,-0.15000000,0.07000000,-0.01731598,-0.14126547,-0.11858289,-2.30000000,-43.43000000,0.05000000
627,0,0.68900000,-0.03200000,0.72900000,-0.07000000,-0.18000000,0.02000000,-0.02120212,-0.15125841,-0.11747256,-2.30000000,-43.43000000,0.05000000
628,0,0.68300000,-0.02500000,0.72400000,-0.10000000,0.07000000,0.05000000,-0.02130625,-0.15118552,-0.11742050,-2.30000000,-43.43000000,0.05000000
629,0,0.68900000,-0.03200000,0.72500000,-0.13000000,-0.07000000,-0.21000000,-0.02143542,-0.15125507,-0.11762915,-2.30000000,-43.43000000,0.05000000
630,0,0.68700000,-0.02800000,0.73100000,-0.18000000,-0.10000000,0.19000000,-0.02162203,-0.15135875,-0.11743217,-2.30000000,-43.44000000,0.05000000
631,0,0.68800000,-0.02500000,0.72600000,-0.15000000,-0.12000000,-0.18000000,-0.02177268,-0.15147927,-0.11761295,-2.30000000,-43.43000000,0.05000000
632,0,0.68600000,-0.02800000,0.72400000,-0.13000000,0.21000000,0.06000000,-0.02190219,-0.15127006,-0.11755318,-2.30000000,-43.44000000,0.05000000
633,0,0.68800000,-0.02700000,0.72100000,-0.01000000,-0.06000000,0.10000000,-0.02246653,-0.15465613,-0.11190973,-2.30000000,-43.44000000,0.05000000
634,0,0.69200000,-0.03000000,0.72400000,-0.03000000,0.42000000,0.14000000,-0.02249767,-0.15422020,-0.11176442,-2.30000000,-43.44000000,0.05000000
635,0,0.68800000,-0.03000000,0.73000000,-0.07000000,-0.05000000,0.13000000,-0.02256725,-0.15426990,-0.11163519,-2.31000000,-43.44000000,0.05000000
636,0,0.69300000,-0.03300000,0.72900000,-0.09000000,-0.04000000,-0.30000000,-0.02265717,-0.15430986,-0.11193491,-2.31000000,-43.44000000,0.05000000
637,0,0.69200000,-0.02700000,0.72800000,-0.19000000,-0.07000000,-0.15000000,-0.02284654,-0.15437963,-0.11208441,-2.31000000,-43.44000000,0.05000000
638,0,0.69100000,-0.02900000,0.72500000,-0.24000000,-0.13000000,-0.01000000,-0.02308523,-0.15450892,-0.11209436,-2.31000000,-43.44000000,0.05000000
639,0,0.68600000,-0.03200000,0.72600000,-0.11000000,0.06000000,0.25000000,-0.02919982,-0.15117369,-0.09819757,-2.31000000,-43.44000000,0.05000000
640,0,0.68700000,-0.03000000,0.72800000,-0.36000000,0.02000000,0.19000000,-0.02957314,-0.15115296,-0.09800054,-2.31000000,-43.44000000,0.06000000
641,0,0.69200000,-0.03000000,0.72700000,0.00000000,0.09000000,-0.16000000,-0.02957314,-0.15106366,-0.09815929,-2.31000000,-43.44000000,0.05000000
642,0,0.69200000,-0.03300000,0.72700000,-0.15000000,-0.15000000,0.09000000,-0.02972403,-0.15121456,-0.09806875,-2.31000000,-43.44000000,0.05000000
643,0,0.68800000,-0.02900000,0.72600000,-0.16000000,-0.19000000,-0.18000000,-0.02988373,-0.15140420,-0.09824841,-2.31000000,-43.44000000,0.05000000
644,0,0.68700000,-0.02700000,0.72300000,-0.11000000,0.17000000,0.00000000,-0.02999248,-0.15123614,-0.09824841,-2.31000000,-43.44000000,0.05000000
645,0,0.69500000,-0.02700000,0.72600000,0.07000000,-0.08000000,0.45000000,-0.02589149,-0.15592298,-0.07188493,-2.31000000,-43.44000000,0.06000000
646,0,0.68700000,-0.02800000,0.72100000,-0.24000000,0.21000000,0.05000000,-0.02617722,-0.15567297,-0.07182541,-2.31000000,-43.44000000,0.06000000
647,0,0.69000000,-0.03300000,0.72300000,-0.09000000,0.18000000,0.42000000,-0.02627014,-0.15548713,-0.07139178,-2.31000000,-43.44000000,0.06000000
648,0,0.69100000,-0.03400000,0.72400000,0.02000000,0.25000000,-0.04000000,-0.02624972,-0.15523194,-0.07143261,-2.31000000,-43.44000000,0.06000000
649,0,0.68700000,-0.03500000,0.72800000,0.13000000,-0.20000000,-0.08000000,-0.02611349,-0.15544153,-0.07151644,-2.31000000,-43.44000000,0.06000000
650,0,0.68800000,-0.03500000,0.72500000,-0.11000000,-0.16000000,-0.03000000,-0.02624794,-0.15563709,-0.07155311,-2.31000000,-43.44000000,0.06000000
651,0,0.69000000,-0.03100000,0.72800000,-0.03000000,-0.13000000,-0.00000000,-0.02627961,-0.15577434,-0.07155311,-2.31000000,-43.44000000,0.06000000
652,0,0.68900000,-0.03200000,0.72400000,-0.01000000,-0.10000000,0.17000000,-0.02683094,-0.16128762,-0.06218055,-2.32000000,-43.44000000,0.06000000
653,0,0.68800000,-0.03000000,0.72400000,-0.09000000,-0.08000000,0.33000000,-0.02693034,-0.16137597,-0.06181607,-2.32000000,-43.44000000,0.06000000
654,0,0.69000000,-0.02900000,0.72600000,-0.06000000,0.17000000,0.23000000,-0.02699249,-0.16119989,-0.06157784,-2.32000000,-43.44000000,0.06000000
655,0,0.68800000,-0.03300000,0.72400000,-0.02000000,-0.13000000,0.12000000,-0.02701265,-0.16133091,-0.06145689,-2.32000000,-43.44000000,0.06000000
656,0,0.68500000,-0.03000000,0.72400000,0.22000000,-0.20000000,-0.28000000,-0.02679374,-0.16152992,-0.06173550,-2.32000000,-43.44000000,0.06000000
657,0,0.68700000,-0.02900000,0.72200000,-0.19000000,-0.06000000,0.19000000,-0.02698352,-0.16158985,-0.06154572,-2.32000000,-43.44000000,0.06000000
658,0,0.68600000,-0.02800000,0.72900000,-0.00000000,0.16000000,0.07000000,-0.02698352,-0.15260160,-0.05761337,-2.32000000,-43.44000000,0.06000000
659,0,0.68400000,-0.02700000,0.72500000,-0.01000000,0.17000000,0.23000000,-0.02699398,-0.15242374,-0.05737272,-2.32000000,-43.44000000,0.06000000
660,0,0.68200000,-0.02800000,0.72900000,-0.03000000,-0.19000000,0.10000000,-0.02702452,-0.15261714,-0.05727093,-2.32000000,-43.44000000,0.07000000
661,0,0.68900000,-0.03000000,0.72800000,0.27000000,0.03000000,0.02000000,-0.02675477,-0.15258717,-0.05725095,-2.32000000,-43.44000000,0.07000000
662,0,0.68800000,-0.02500000,0.72700000,-0.00000000,-0.14000000,-0.01000000,-0.02675477,-0.15272677,-0.05726092,-2.32000000,-43.44000000,0.07000000
663,0,0.69200000,-0.02800000,0.72800000,-0.11000000,-0.03000000,0.08000000,-0.02687219,-0.15275880,-0.05717552,-2.32000000,-43.44000000,0.07000000
664,0,0.69000000,-0.03000000,0.72600000,0.09000000,-0.18000000,-0.10000000,-0.02188538,-0.16273243,-0.06271642,-2.32000000,-43.44000000,0.07000000
665,0,0.68600000,-0.03100000,0.72500000,-0.14000000,-0.03000000,0.04000000,-0.02203049,-0.16276352,-0.06267496,-2.32000000,-43.44000000,0.07000000
666,0,0.68800000,-0.02700000,0.72600000,-0.11000000,0.19000000,0.02000000,-0.02214089,-0.16257284,-0.06265489,-2.32000000,-43.44000000,0.07000000
667,0,0.68600000,-0.02700000,0.72500000,-0.02000000,0.03000000,0.01000000,-0.02216073,-0.16254307,-0.06264497,-2.32000000,-43.44000000,0.07000000
668,0,0.68800000,-0.03000000,0.72700000,-0.00000000,-0.06000000,0.14000000,-0.02216073,-0.16260207,-0.06250730,-2.32000000,-43.44000000,0.07000000
669,0,0.68700000,-0.03200000,0.72900000,-0.07000000,0.21000000,0.05000000,-0.02222985,-0.16239472,-0.06245793,-2.33000000,-43.44000000,0.07000000
670,0,0.68900000,-0.02900000,0.72500000,-0.04000000,0.14000000,-0.18000000,-0.02446409,-0.15457487,-0.07251203,-2.32000000,-43.44000000,0.07000000
671,0,0.68800000,-0.02800000,0.72300000,0.01000000,0.15000000,0.08000000,-0.02445375,-0.15441968,-0.07242926,-2.32000000,-43.44000000,0.07000000
672,0,0.69100000,-0.03400000,0.72500000,-0.30000000,-0.09000000,0.05000000,-0.02476420,-0.15451281,-0.07237752,-2.32000000,-43.44000000,0.07000000
673,0,0.68900000,-0.03200000,0.73100000,-0.15000000,-0.01000000,-0.14000000,-0.02491384,-0.15452279,-0.07251719,-2.32000000,-43.44000000,0.07000000
674,0,0.68300000,-0.03100000,0.72600000,-0.06000000,0.02000000,0.07000000,-0.02497309,-0.15450304,-0.07244807,-2.32000000,-43.44000000,0.07000000
675,0,0.69000000,-0.03100000,0.72300000,-0.01000000,-0.06000000,0.07000000,-0.02498299,-0.15456244,-0.07237877,-2.32000000,-43.45000000,0.07000000
676,0,0.69200000,-0.02900000,0.72200000,0.26000000,0.13000000,0.12000000,-0.01036562,-0.14725376,-0.06563230,-2.32000000,-43.44000000,0.07000000
677,0,0.68400000,-0.02700000,0.72600000,0.04000000,0.03000000,-0.13000000,-0.01032326,-0.14722198,-0.06576999,-2.32000000,-43.44000000,0.07000000
678,0,0.69000000,-0.02500000,0.72800000,-0.22000000,0.10000000,-0.18000000,-0.01054473,-0.14712131,-0.06595119,-2.32000000,-43.44000000,0.07000000
679,0,0.68800000,-0.02900000,0.72400000,-0.04000000,-0.36000000,-0.25000000,-0.01058454,-0.14747961,-0.06620001,-2.32000000,-43.44000000,0.07000000
680,0,0.69200000,-0.02700000,0.72600000,0.13000000,0.03000000,-0.13000000,-0.01045581,-0.14744990,-0.06632874,-2.32000000,-43.45000000,0.06000000
681,0,0.69100000,-0.03200000,0.72400000,0.20000000,-0.02000000,-0.17000000,-0.01025742,-0.14746974,-0.06649737,-2.32000000,-43.45000000,0.06000000
682,0,0.68500000,-0.02700000,0.72800000,0.06000000,-0.25000000,0.03000000,-0.00692415,-0.16135836,-0.06483073,-2.31000000,-43.45000000,0.06000000
683,0,0.68700000,-0.02900000,0.72500000,0.05000000,-0.11000000,0.01000000,-0.00687166,-0.16147385,-0.06482024,-2.31000000,-43.45000000,0.06000000
684,0,0.68700000,-0.02600000,0.72800000,0.04000000,0.14000000,0.08000000,-0.00683187,-0.16133458,-0.06474065,-2.31000000,-43.45000000,0.06000000
685,0,0.68500000,-0.03000000,0.72900000,0.28000000,0.18000000,-0.04000000,-0.00655553,-0.16115693,-0.06478013,-2.31000000,-43.45000000,0.06000000
686,0,0.69000000,-0.02500000,0.72400000,0.02000000,0.12000000,-0.16000000,-0.00653090,-0.16100912,-0.06497721,-2.31000000,-43.45000000,0.06000000
687,0,0.68800000,-0.02600000,0.72600000,0.17000000,-0.19000000,0.13000000,-0.00635599,-0.16120461,-0.06484346,-2.31000000,-43.45000000,0.05000000
688,0,0.68500000,-0.02800000,0.72300000,0.00000000,0.15000000,-0.10000000,-0.00635599,-0.15277083,-0.07046597,-2.31000000,-43.45000000,0.05000000
689,0,0.68500000,-0.03000000,0.72900000,0.13000000,-0.07000000,0.09000000,-0.00622152,-0.15284324,-0.07037288,-2.30000000,-43.45000000,0.05000000
690,0,0.69100000,-0.02600000,0.72800000,0.10000000,0.03000000,0.17000000,-0.00612250,-0.15281353,-0.07020454,-2.31000000,-43.45000000,0.05000000
691,0,0.68900000,-0.02700000,0.72800000,0.21000000,0.14000000,0.06000000,-0.00589321,-0.15266067,-0.07013903,-2.31000000,-43.45000000,0.05000000
692,0,0.68700000,-0.02400000,0.72600000,0.03000000,-0.21000000,-0.37000000,-0.00586258,-0.15287514,-0.07051689,-2.30000000,-43.45000000,0.05000000
693,0,0.69300000,-0.03300000,0.72400000,0.06000000,0.03000000,0.01000000,-0.00579649,-0.15284210,-0.07050588,-2.30000000,-43.45000000,0.05000000
694,0,0.68900000,-0.03200000,0.72300000,0.03000000,-0.04000000,-0.24000000,-0.00413494,-0.15505750,-0.08379833,-2.31000000,-43.45000000,0.05000000
695,0,0.69000000,-0.02700000,0.72900000,0.10000000,-0.08000000,-0.09000000,-0.00403060,-0.15514098,-0.08389224,-2.31000000,-43.45000000,0.05000000
696,0,0.68700000,-0.03000000,0.72900000,0.11000000,0.16000000,-0.00000000,-0.00391894,-0.15497857,-0.08389224,-2.31000000,-43.45000000,0.05000000
697,0,0.68800000,-0.02900000,0.72600000,-0.07000000,-0.14000000,0.10000000,-0.00399140,-0.15512348,-0.08378873,-2.31000000,-43.45000000,0.05000000
698,0,0.68600000,-0.02500000,0.72600000,-0.18000000,-0.03000000,0.28000000,-0.00418050,-0.15515500,-0.08349457,-2.31000000,-43.45000000,0.06000000
699,0,0.68500000,-0.03100000,0.72600000,0.06000000,-0.00000000,-0.10000000,-0.00411808,-0.15515500,-0.08359860,-2.31000000,-43.45000000,0.05000000
700,0,0.68800000,-0.02600000,0.72700000,0.03000000,-0.06000000,0.05000000,-0.00245647,-0.15847823,-0.08082925,-2.30000000,-43.45000000,0.05000000
701,0,0.68900000,-0.02900000,0.72400000,-0.10000000,-0.23000000,-0.00000000,-0.00256150,-0.15871980,-0.08082925,-2.30000000,-43.45000000,0.05000000
702,0,0.69200000,-0.02400000,0.72400000,0.12000000,-0.16000000,0.02000000,-0.00244138,-0.15887996,-0.08080923,-2.30000000,-43.45000000,0.05000000
703,0,0.68500000,-0.03100000,0.72600000,0.04000000,-0.08000000,0.26000000,-0.00239905,-0.15896462,-0.08053409,-2.30000000,-43.45000000,0.05000000
704,0,0.69300000,-0.03000000,0.72400000,-0.29000000,-0.20000000,0.15000000,-0.00269127,-0.15916615,-0.08038294,-2.30000000,-43.45000000,0.05000000
705,0,0.68900000,-0.03300000,0.72700000,-0.10000000,-0.27000000,0.14000000,-0.00279195,-0.15943796,-0.08024200,-2.31000000,-43.45000000,0.05000000
706,0,0.69000000,-0.02900000,0.72200000,-0.16000000,0.03000000,0.12000000,-0.01180834,-0.15774738,-0.07347971,-2.30000000,-43.45000000,0.05000000
707,0,0.69000000,-0.02900000,0.72300000,-0.13000000,-0.20000000,0.03000000,-0.01195549,-0.15797376,-0.07344575,-2.30000000,-43.45000000,0.05000000
708,0,0.68500000,-0.02800000,0.72800000,-0.16000000,0.08000000,0.01000000,-0.01211538,-0.15789381,-0.07343576,-2.30000000,-43.45000000,0.05000000
709,0,0.68700000,-0.02600000,0.72500000,-0.16000000,0.15000000,-0.11000000,-0.01227763,-0.15774170,-0.07354731,-2.30000000,-43.45000000,0.05000000
710,0,0.68700000,-0.02900000,0.72700000,-0.18000000,-0.06000000,0.16000000,-0.01246296,-0.15780348,-0.07338257,-2.30000000,-43.45000000,0.05000000
711,0,0.68800000,-0.02400000,0.72300000,0.02000000,0.05000000,-0.09000000,-0.01244307,-0.15775376,-0.07347206,-2.30000000,-43.45000000,0.05000000
712,0,0.68400000,-0.02800000,0.72900000,-0.21000000,0.25000000,-0.04000000,-0.02407677,-0.14390412,-0.07568800,-2.30000000,-43.45000000,0.05000000
713,0,0.68300000,-0.03400000,0.72200000,-0.29000000,-0.07000000,0.08000000,-0.02437895,-0.14397706,-0.07560464,-2.30000000,-43.45000000,0.05000000
714,0,0.68700000,-0.03000000,0.72700000,-0.12000000,-0.05000000,-0.02000000,-0.02450041,-0.14402767,-0.07562489,-2.30000000,-43.45000000,0.05000000
715,0,0.69100000,-0.03100000,0.72600000,-0.27000000,-0.08000000,0.07000000,-0.02483235,-0.14412602,-0.07553883,-2.30000000,-43.45000000,0.05000000
716,0,0.69100000,-0.02400000,0.72500000,-0.03000000,0.21000000,-0.10000000,-0.02486301,-0.14391136,-0.07564105,-2.30000000,-43.45000000,0.05000000
717,0,0.68600000,-0.02600000,0.72600000,-0.10000000,0.25000000,-0.03000000,-0.02497382,-0.14363435,-0.07567429,-2.30000000,-43.45000000,0.05000000
718,0,0.68700000,-0.02800000,0.72700000,-0.13000000,-0.18000000,-0.14000000,-0.03215018,-0.15357086,-0.08340269,-2.30000000,-43.45000000,0.05000000
719,0,0.68700000,-0.02700000,0.72400000,-0.05000000,-0.15000000,0.14000000,-0.03220194,-0.15372612,-0.08325778,-2.30000000,-43.45000000,0.05000000
720,0,0.68600000,-0.03400000,0.72700000,0.11000000,-0.03000000,0.15000000,-0.03209283,-0.15375588,-0.08310899,-2.30000000,-43.45000000,0.05000000
721,0,0.68600000,-0.03400000,0.72100000,-0.13000000,-0.01000000,0.25000000,-0.03222661,-0.15376617,-0.08285171,-2.30000000,-43.45000000,0.05000000
722,0,0.68900000,-0.02800000,0.72600000,0.04000000,0.26000000,-0.00000000,-0.03218594,-0.15350182,-0.08285171,-2.30000000,-43.45000000,0.05000000
723,0,0.68700000,-0.02700000,0.72300000,-0.11000000,0.06000000,-0.22000000,-0.03229597,-0.15344180,-0.08307177,-2.30000000,-43.45000000,0.05000000
724,0,0.69300000,-0.03100000,0.72600000,0.25000000,-0.19000000,0.03000000,-0.01817793,-0.16417152,-0.08137760,-2.30000000,-43.45000000,0.05000000
725,0,0.68700000,-0.02700000,0.72200000,0.01000000,-0.12000000,-0.13000000,-0.01816735,-0.16429853,-0.08151520,-2.30000000,-43.45000000,0.05000000
726,0,0.68800000,-0.02700000,0.72800000,0.02000000,-0.13000000,-0.38000000,-0.01814679,-0.16443213,-0.08190572,-2.30000000,-43.45000000,0.05000000
727,0,0.69100000,-0.03200000,0.72300000,-0.00000000,0.08000000,-0.03000000,-0.01814679,-0.16435226,-0.08193567,-2.30000000,-43.45000000,0.05000000
728,0,0.69900000,-0.02100000,0.72600000,0.18000000,-0.28000000,0.25000000,-0.01796747,-0.16463120,-0.08168662,-2.30000000,-43.45000000,0.05000000
729,0,0.68900000,-0.02700000,0.72200000,0.05000000,0.08000000,-0.02000000,-0.01791748,-0.16455122,-0.08170661,-2.30000000,-43.45000000,0.05000000
730,0,0.69300000,-0.02900000,0.72400000,-0.06000000,-0.21000000,0.17000000,-0.02124299,-0.17619047,-0.07228436,-2.30000000,-43.46000000,0.05000000
731,0,0.68800000,-0.02800000,0.72300000,-0.31000000,-0.11000000,-0.14000000,-0.02156379,-0.17630430,-0.07242924,-2.30000000,-43.46000000,0.05000000
732,0,0.68300000,-0.03100000,0.72500000,-0.06000000,0.12000000,0.04000000,-0.02162310,-0.17618567,-0.07238969,-2.30000000,-43.46000000,0.05000000
733,0,0.68900000,-0.02900000,0.72500000,0.05000000,0.09000000,0.04000000,-0.02157218,-0.17609402,-0.07234896,-2.30000000,-43.46000000,0.05000000
734,0,0.68700000,-0.02600000,0.72300000,-0.05000000,-0.19000000,0.01000000,-0.02162192,-0.17628303,-0.07233901,-2.30000000,-43.46000000,0.05000000
735,0,0.68500000,-0.02600000,0.72700000,0.03000000,0.02000000,0.03000000,-0.02159218,-0.17626320,-0.07230927,-2.30000000,-43.46000000,0.05000000
736,0,0.69000000,-0.03300000,0.72500000,-0.07000000,-0.11000000,-0.08000000,-0.02548922,-0.18238712,-0.07676303,-2.30000000,-43.46000000,0.05000000
737,0,0.68700000,-0.03200000,0.72800000,-0.02000000,0.01000000,-0.02000000,-0.02550990,-0.18237678,-0.07678371,-2.30000000,-43.46000000,0.05000000
738,0,0.68800000,-0.02800000,0.72600000,-0.15000000,-0.15000000,0.32000000,-0.02565797,-0.18252486,-0.07646782,-2.30000000,-43.46000000,0.05000000
739,0,0.68700000,-0.03000000,0.72400000,-0.03000000,0.06000000,-0.06000000,-0.02568815,-0.18246450,-0.07652818,-2.30000000,-43.46000000,0.05000000
740,0,0.68300000,-0.02600000,0.72100000,-0.09000000,-0.04000000,-0.10000000,-0.02577775,-0.18250432,-0.07662773,-2.30000000,-43.46000000,0.05000000
741,0,0.68800000,-0.03500000,0.72700000,-0.06000000,-0.05000000,0.09000000,-0.02583895,-0.18255532,-0.07653592,-2.30000000,-43.46000000,0.05000000
742,0,0.68900000,-0.02900000,0.72400000,-0.13000000,-0.27000000,0.15000000,-0.03316896,-0.19777918,-0.06807822,-2.30000000,-43.46000000,0.05000000
743,0,0.69100000,-0.02500000,0.72400000,-0.17000000,0.01000000,-0.23000000,-0.03334776,-0.19776866,-0.06832013,-2.30000000,-43.46000000,0.05000000
744,0,0.68900000,-0.03200000,0.72800000,-0.20000000,0.06000000,-0.20000000,-0.03355120,-0.19770763,-0.06852357,-2.30000000,-43.46000000,0.04000000
745,0,0.68400000,-0.03100000,0.72200000,-0.13000000,0.12000000,0.11000000,-0.03368080,-0.19758800,-0.06841390,-2.30000000,-43.46000000,0.04000000
746,0,0.68500000,-0.03100000,0.72600000,-0.10000000,-0.14000000,0.23000000,-0.03378037,-0.19772740,-0.06818488,-2.30000000,-43.46000000,0.05000000
747,0,0.68700000,-0.02700000,0.72200000,-0.09000000,-0.17000000,0.04000000,-0.03387005,-0.19789680,-0.06814503,-2.30000000,-43.46000000,0.05000000
748,0,0.68600000,-0.02700000,0.72600000,0.08000000,-0.14000000,0.33000000,-0.02943040,-0.20566618,-0.04983148,-2.30000000,-43.46000000,0.05000000
749,0,0.69200000,-0.02100000,0.72500000,0.14000000,-0.05000000,-0.09000000,-0.02928145,-0.20571938,-0.04992723,-2.30000000,-43.46000000,0.04000000
750,0,0.68900000,-0.02700000,0.72600000,0.20000000,0.09000000,-0.12000000,-0.02907930,-0.20562841,-0.05004852,-2.30000000,-43.46000000,0.04000000
751,0,0.68800000,-0.03000000,0.72300000,0.03000000,0.22000000,-0.13000000,-0.02904961,-0.20541066,-0.05017719,-2.30000000,-43.46000000,0.04000000
752,0,0.68800000,-0.02900000,0.72200000,-0.12000000,0.12000000,0.21000000,-0.02916761,-0.20529266,-0.04997069,-2.30000000,-43.46000000,0.04000000
753,0,0.68800000,-0.02600000,0.72800000,0.02000000,0.07000000,-0.06000000,-0.02914788,-0.20522359,-0.05002989,-2.30000000,-43.46000000,0.04000000
754,0,0.68700000,-0.03100000,0.72700000,-0.08000000,0.07000000,0.05000000,-0.03359386,-0.20133336,-0.04725115,-2.30000000,-43.46000000,0.04000000
755,0,0.68800000,-0.03700000,0.72600000,-0.08000000,0.13000000,-0.00000000,-0.03367786,-0.20119685,-0.04725115,-2.30000000,-43.46000000,0.04000000
756,0,0.68900000,-0.02800000,0.72400000,0.13000000,-0.03000000,0.16000000,-0.03354557,-0.20122738,-0.04708833,-2.30000000,-43.46000000,0.04000000
757,0,0.68500000,-0.02700000,0.72600000,0.13000000,-0.14000000,0.15000000,-0.03341578,-0.20136715,-0.04693857,-2.30000000,-43.46000000,0.04000000
758,0,0.68900000,-0.02700000,0.72500000,-0.03000000,-0.09000000,0.11000000,-0.03344562,-0.20145666,-0.04682917,-2.30000000,-43.46000000,0.04000000
759,0,0.68700000,-0.03200000,0.72700000,0.14000000,0.09000000,0.06000000,-0.03330591,-0.20136685,-0.04676930,-2.30000000,-43.46000000,0.04000000
760,0,0.69000000,-0.03400000,0.72900000,-0.14000000,0.12000000,-0.00000000,-0.04121045,-0.19459153,-0.04676930,-2.30000000,-43.46000000,0.04000000
761,0,0.68400000,-0.03000000,0.72800000,0.21000000,0.17000000,0.07000000,-0.04099188,-0.19441460,-0.04669644,-2.30000000,-43.46000000,0.04000000
762,0,0.68500000,-0.03200000,0.72500000,-0.03000000,0.16000000,-0.04000000,-0.04102152,-0.19425650,-0.04673597,-2.30000000,-43.46000000,0.04000000
763,0,0.68400000,-0.03000000,0.72800000,0.01000000,-0.08000000,-0.07000000,-0.04101111,-0.19433982,-0.04680887,-2.30000000,-43.46000000,0.04000000
764,0,0.68500000,-0.02800000,0.72600000,0.03000000,0.20000000,-0.10000000,-0.04098107,-0.19413958,-0.04690900,-2.30000000,-43.46000000,0.04000000
765,0,0.68900000,-0.02800000,0.72600000,-0.21000000,0.19000000,0.02000000,-0.04119258,-0.19394821,-0.04688885,-2.30000000,-43.46000000,0.05000000
766,0,0.68800000,-0.02800000,0.72300000,0.06000000,-0.09000000,0.05000000,-0.03784828,-0.19896466,-0.04410194,-2.30000000,-43.46000000,0.05000000
767,0,0.68700000,-0.02700000,0.72600000,-0.16000000,-0.04000000,-0.15000000,-0.03801397,-0.19900608,-0.04425727,-2.30000000,-43.45000000,0.05000000
768,0,0.68400000,-0.02800000,0.73000000,-0.15000000,-0.07000000,0.02000000,-0.03816258,-0.19907543,-0.04423746,-2.30000000,-43.46000000,0.04000000
769,0,0.68400000,-0.03100000,0.72400000,-0.11000000,0.02000000,-0.01000000,-0.03827549,-0.19905490,-0.04424772,-2.30000000,-43.46000000,0.05000000
770,0,0.69100000,-0.03200000,0.72700000,-0.09000000,-0.03000000,0.07000000,-0.03836489,-0.19908470,-0.04417819,-2.30000000,-43.46000000,0.05000000
771,0,0.69200000,-0.02900000,0.72500000,0.00000000,0.03000000,-0.18000000,-0.03836489,-0.19905475,-0.04435789,-2.30000000,-43.46000000,0.04000000
772,0,0.68200000,-0.02900000,0.72400000,0.02000000,-0.04000000,0.11000000,-0.03719959,-0.20138536,-0.03794871,-2.30000000,-43.46000000,0.04000000
773,0,0.68600000,-0.03000000,0.72600000,-0.12000000,-0.18000000,-0.09000000,-0.03732637,-0.20157554,-0.03804379,-2.30000000,-43.46000000,0.04000000
774,0,0.68900000,-0.02800000,0.72500000,0.08000000,0.07000000,-0.18000000,-0.03724612,-0.20150532,-0.03822436,-2.30000000,-43.46000000,0.04000000
775,0,0.68900000,-0.03100000,0.72800000,-0.06000000,0.12000000,-0.12000000,-0.03730594,-0.20138569,-0.03834399,-2.30000000,-43.46000000,0.04000000
776,0,0.68700000,-0.02700000,0.72500000,0.29000000,0.09000000,-0.05000000,-0.03701787,-0.20129629,-0.03839366,-2.30000000,-43.46000000,0.04000000
777,0,0.69100000,-0.02800000,0.72600000,0.25000000,0.28000000,0.08000000,-0.03676863,-0.20101715,-0.03831390,-2.29000000,-43.46000000,0.04000000
778,0,0.68500000,-0.02900000,0.72400000,0.19000000,-0.08000000,-0.16000000,-0.03657804,-0.20109740,-0.03847440,-2.29000000,-43.46000000,0.04000000
779,0,0.69000000,-0.03700000,0.72600000,-0.04000000,-0.12000000,0.38000000,-0.03883774,-0.20787649,-0.01700728,-2.29000000,-43.46000000,0.04000000
780,0,0.68500000,-0.03200000,0.72800000,-0.22000000,0.20000000,-0.08000000,-0.03906697,-0.20766809,-0.01709064,-2.29000000,-43.46000000,0.04000000
781,0,0.68700000,-0.02500000,0.72000000,0.03000000,0.09000000,-0.23000000,-0.03903724,-0.20757888,-0.01731862,-2.29000000,-43.46000000,0.04000000
782,0,0.68800000,-0.02800000,0.72600000,-0.18000000,-0.10000000,-0.18000000,-0.03921535,-0.20767784,-0.01749673,-2.29000000,-43.46000000,0.04000000
783,0,0.69100000,-0.03000000,0.72300000,-0.13000000,-0.00000000,-0.11000000,-0.03934610,-0.20767784,-0.01760737,-2.29000000,-43.46000000,0.04000000
784,0,0.69000000,-0.02300000,0.72700000,-0.30000000,0.14000000,-0.01000000,-0.03964869,-0.20753663,-0.01761745,-2.29000000,-43.46000000,0.04000000
785,0,0.69200000,-0.03500000,0.72700000,-0.03000000,-0.15000000,0.15000000,-0.04131469,-0.21586666,-0.00928743,-2.29000000,-43.46000000,0.04000000
786,0,0.68700000,-0.03000000,0.72500000,-0.00000000,0.13000000,-0.01000000,-0.04131469,-0.21573018,-0.00929792,-2.29000000,-43.46000000,0.04000000
787,0,0.68500000,-0.03000000,0.72500000,0.09000000,-0.22000000,0.01000000,-0.04122224,-0.21595616,-0.00928765,-2.30000000,-43.46000000,0.04000000
788,0,0.69300000,-0.03000000,0.72800000,0.03000000,0.13000000,0.15000000,-0.04119203,-0.21582523,-0.00913658,-2.29000000,-43.46000000,0.04000000
789,0,0.68600000,-0.02600000,0.72600000,-0.03000000,-0.02000000,0.04000000,-0.04122191,-0.21584515,-0.00909674,-2.29000000,-43.46000000,0.04000000
790,0,0.68100000,-0.02400000,0.72700000,-0.01000000,0.05000000,0.11000000,-0.04123185,-0.21579544,-0.00898739,-2.29000000,-43.45000000,0.04000000
791,0,0.68800000,-0.02700000,0.72600000,0.11000000,0.21000000,-0.21000000,-0.03510554,-0.20409976,-0.02068307,-2.29000000,-43.45000000,0.04000000
792,0,0.68700000,-0.03100000,0.72800000,-0.15000000,-0.08000000,-0.07000000,-0.03526584,-0.20418526,-0.02075788,-2.29000000,-43.45000000,0.04000000
793,0,0.68600000,-0.02700000,0.72500000,0.08000000,0.01000000,0.07000000,-0.03518538,-0.20417520,-0.02068748,-2.29000000,-43.45000000,0.04000000
794,0,0.68300000,-0.02900000,0.72400000,-0.10000000,0.10000000,-0.29000000,-0.03528426,-0.20407632,-0.02097424,-2.29000000,-43.45000000,0.04000000
795,0,0.68600000,-0.03200000,0.72700000,-0.09000000,-0.13000000,0.02000000,-0.03537500,-0.20420737,-0.02095407,-2.29000000,-43.46000000,0.04000000
796,0,0.69300000,-0.02500000,0.72300000,-0.10000000,0.01000000,-0.07000000,-0.03548213,-0.20419666,-0.02102907,-2.29000000,-43.46000000,0.04000000
797,0,0.68300000,-0.03300000,0.72900000,-0.11000000,0.08000000,0.16000000,-0.04166330,-0.19970126,-0.01203827,-2.30000000,-43.46000000,0.04000000
798,0,0.68900000,-0.02500000,0.72500000,-0.03000000,0.05000000,-0.27000000,-0.04169448,-0.19964929,-0.01231890,-2.30000000,-43.45000000,0.04000000
799,0,0.68900000,-0.02800000,0.72700000,-0.08000000,-0.07000000,0.10000000,-0.04177447,-0.19971928,-0.01221892,-2.29000000,-43.46000000,0.04000000
800,0,0.68700000,-0.02700000,0.72400000,-0.13000000,-0.07000000,0.10000000,-0.04190521,-0.19978968,-0.01211834,-2.30000000,-43.46000000,0.04000000
801,0,0.69000000,-0.02700000,0.72700000,0.21000000,-0.04000000,0.29000000,-0.04169591,-0.19982955,-0.01182930,-2.29000000,-43.46000000,0.04000000
802,0,0.68700000,-0.03300000,0.72100000,-0.18000000,0.25000000,0.11000000,-0.04187523,-0.19958050,-0.01171972,-2.30000000,-43.45000000,0.04000000
803,0,0.69000000,-0.02800000,0.72500000,-0.08000000,0.11000000,-0.00000000,-0.04634530,-0.19343415,-0.01171972,-2.30000000,-43.45000000,0.04000000
804,0,0.69100000,-0.03000000,0.73200000,-0.09000000,0.02000000,-0.10000000,-0.04647940,-0.19340435,-0.01186871,-2.30000000,-43.46000000,0.04000000
805,0,0.68600000,-0.03500000,0.72500000,0.15000000,-0.05000000,0.08000000,-0.04626055,-0.19347730,-0.01175200,-2.30000000,-43.46000000,0.04000000
806,0,0.68600000,-0.02700000,0.72300000,0.04000000,-0.04000000,0.15000000,-0.04620166,-0.19353619,-0.01153115,-2.30000000,-43.45000000,0.04000000
807,0,0.69000000,-0.02800000,0.72000000,-0.17000000,0.04000000,0.08000000,-0.04646707,-0.19347374,-0.01140624,-2.30000000,-43.46000000,0.05000000
808,0,0.68400000,-0.03200000,0.72400000,0.08000000,0.13000000,0.06000000,-0.04634823,-0.19328063,-0.01131712,-2.30000000,-43.46000000,0.05000000
809,0,0.69200000,-0.02900000,0.72500000,0.14000000,0.20000000,0.03000000,-0.03890676,-0.18264996,-0.00972252,-2.30000000,-43.45000000,0.05000000
810,0,0.68700000,-0.02900000,0.72600000,-0.11000000,-0.00000000,-0.03000000,-0.03908569,-0.18264996,-0.00977131,-2.30000000,-43.45000000,0.04000000
811,0,0.69300000,-0.02500000,0.72700000,-0.12000000,-0.21000000,-0.00000000,-0.03926694,-0.18296716,-0.00977131,-2.30000000,-43.45000000,0.05000000
812,0,0.68700000,-0.03000000,0.72900000,0.04000000,0.01000000,0.23000000,-0.03920884,-0.18295263,-0.00943723,-2.30000000,-43.45000000,0.05000000
813,0,0.69400000,-0.02600000,0.71900000,-0.00000000,-0.10000000,-0.06000000,-0.03920884,-0.18309822,-0.00952458,-2.30000000,-43.45000000,0.04000000
814,0,0.68600000,-0.02900000,0.72600000,-0.21000000,0.05000000,0.06000000,-0.03952910,-0.18302197,-0.00943308,-2.30000000,-43.45000000,0.04000000
815,0,0.68500000,-0.03000000,0.72700000,-0.14000000,-0.22000000,0.03000000,-0.04706560,-0.19486504,-0.00781811,-2.30000000,-43.45000000,0.04000000
816,0,0.69100000,-0.03100000,0.72500000,-0.22000000,0.04000000,0.07000000,-0.04738375,-0.19480720,-0.00771689,-2.30000000,-43.46000000,0.04000000
817,0,0.68700000,-0.02900000,0.72500000,-0.03000000,-0.18000000,0.06000000,-0.04742588,-0.19505999,-0.00763262,-2.30000000,-43.46000000,0.04000000
818,0,0.68700000,-0.02900000,0.72600000,0.06000000,-0.00000000,0.42000000,-0.04734490,-0.19505999,-0.00706581,-2.30000000,-43.45000000,0.04000000
819,0,0.69200000,-0.02800000,0.72200000,-0.02000000,0.30000000,-0.02000000,-0.04737194,-0.19465448,-0.00709285,-2.30000000,-43.45000000,0.05000000
820,0,0.69400000,-0.02500000,0.72600000,0.04000000,0.03000000,-0.03000000,-0.04731571,-0.19461231,-0.00713502,-2.30000000,-43.45000000,0.05000000
