Measurement Count,IMU_MODE,Accel_X,Accel_Y,Accel_Z,Gyro_X,Gyro_Y,Gyro_Z,X_DEL_ANG,Y_DEL_ANG,Z_DEL_ANG,ROLL,PITCH,HEADING
1,0,0.00100000,0.01400000,0.99800000,0.24000000,-0.06000000,0.07000000,0.07285546,-0.01821386,0.02124951,0.74000000,0.03000000,0.00000000
2,0,0.00700000,0.01700000,1.00400000,-0.08000000,-0.41000000,-0.10000000,0.07277315,-0.01863571,0.02114662,0.71000000,0.06000000,-0.00000000
3,0,-0.00100000,0.01300000,0.99700000,0.03000000,0.25000000,-0.08000000,0.07280296,-0.01838725,0.02106711,0.65000000,0.02000000,-0.00000000
4,0,0.00300000,0.01200000,0.99700000,0.07000000,0.02000000,0.00000000,0.07287277,-0.01836730,0.02106711,0.67000000,0.02000000,-0.00000000
5,0,0.00200000,0.01000000,1.00000000,0.05000000,-0.10000000,-0.20000000,0.07292256,-0.01846690,0.02086792,0.66000000,0.00000000,-0.00000000
6,0,-0.00300000,0.01200000,1.00000000,0.08000000,-0.18000000,-0.05000000,0.07300466,-0.01865163,0.02081661,0.71000000,0.02000000,-0.00000000
7,0,-0.00100000,0.01000000,1.00000000,-0.04000000,0.10000000,-0.05000000,0.07296458,-0.01855141,0.02076650,0.70000000,0.02000000,-0.00000000
8,0,-0.00200000,0.01600000,0.99900000,0.14000000,0.14000000,0.07000000,0.07310468,-0.01841131,0.02083655,0.72000000,0.02000000,-0.00000000
9,0,0.00100000,0.01300000,1.00000000,-0.09000000,-0.01000000,-0.19000000,0.07301354,-0.01842143,0.02064414,0.71000000,0.04000000,-0.00000000
10,0,-0.00200000,0.01600000,0.99700000,-0.06000000,-0.05000000,0.06000000,0.07294604,-0.01847768,0.02071164,0.73000000,0.04000000,-0.00000000
11,0,0.00200000,0.01900000,0.99800000,-0.44000000,-0.03000000,0.01000000,0.07248442,-0.01850915,0.02072213,0.73000000,0.01000000,-0.00000000
12,0,-0.00200000,0.01700000,1.00100000,0.16000000,-0.00000000,-0.11000000,0.07264610,-0.01850915,0.02061097,0.74000000,0.01000000,-0.00000000
13,0,-0.00500000,0.01400000,0.99700000,0.05000000,0.05000000,0.09000000,0.07269817,-0.01845709,0.02070469,0.75000000,0.01000000,-0.00000000
14,0,0.00200000,0.00900000,1.00000000,-0.12000000,0.03000000,0.11000000,0.07256732,-0.01842438,0.02082463,0.74000000,0.01000000,-0.00000000
15,0,-0.00300000,0.01500000,1.00300000,-0.20000000,0.08000000,0.15000000,0.07234085,-0.01833379,0.02099449,0.74000000,0.01000000,-0.00000000
16,0,-0.00200000,0.01400000,1.00100000,0.05000000,-0.08000000,-0.24000000,0.07239662,-0.01842303,0.02072678,0.74000000,0.02000000,-0.00000000
17,0,-0.00100000,0.01200000,1.00500000,-0.22000000,-0.19000000,0.06000000,0.07216508,-0.01862300,0.02078993,0.74000000,0.02000000,-0.00000000
18,0,-0.00300000,0.01600000,0.99800000,0.17000000,-0.05000000,-0.08000000,0.07234246,-0.01867517,0.02070646,0.74000000,0.02000000,-0.00000000
19,0,0.00300000,0.01300000,1.00200000,0.14000000,0.11000000,-0.06000000,0.07248500,-0.01856317,0.02064537,0.76000000,0.01000000,-0.00000000
20,0,-0.00400000,0.01600000,0.99700000,-0.07000000,-0.18000000,-0.08000000,0.07241311,-0.01874803,0.02056321,0.76000000,0.01000000,-0.00000000
21,0,-0.00500000,0.01500000,0.99700000,-0.02000000,0.02000000,-0.06000000,0.07239161,-0.01872653,0.02049872,0.76000000,0.01000000,-0.00000000
22,0,-0.00400000,0.01200000,0.99900000,-0.13000000,0.05000000,0.19000000,0.07225011,-0.01867210,0.02070553,0.76000000,0.01000000,-0.00000000
23,0,0.00400000,0.01400000,0.99800000,-0.09000000,-0.14000000,-0.03000000,0.07215534,-0.01881952,0.02067394,0.76000000,0.01000000,-0.00000000
24,0,0.00000000,0.01500000,0.99900000,0.09000000,0.14000000,0.24000000,0.07224681,-0.01867724,0.02091784,0.76000000,0.01000000,-0.00000000
25,0,-0.00100000,0.01200000,1.00000000,-0.19000000,-0.11000000,-0.11000000,0.07204942,-0.01879152,0.02080356,0.77000000,0.01000000,-0.00000000
26,0,0.00300000,0.01300000,1.00100000,0.24000000,0.18000000,0.18000000,0.07230699,-0.01859834,0.02099674,0.76000000,0.01000000,-0.00000000
27,0,0.00000000,0.01800000,0.99600000,-0.14000000,-0.03000000,0.03000000,0.07216258,-0.01862929,0.02102769,0.77000000,0.01000000,-0.00000000
28,0,0.00400000,0.01300000,0.99900000,0.01000000,0.20000000,-0.02000000,0.07217405,-0.01839981,0.02100474,0.77000000,0.01000000,-0.00000000
29,0,-0.00100000,0.01800000,0.99600000,-0.04000000,-0.22000000,-0.02000000,0.07145113,-0.02237591,0.02064328,0.77000000,0.00000000,-0.00000000
30,0,-0.00000000,0.01400000,1.00200000,0.03000000,0.04000000,-0.05000000,0.07148756,-0.02232734,0.02058256,0.77000000,-0.00000000,-0.00000000
31,0,-0.00200000,0.00800000,0.99900000,-0.07000000,-0.06000000,-0.14000000,0.07140946,-0.02239428,0.02042636,0.77000000,-0.00000000,-0.00000000
32,0,0.00200000,0.01600000,1.00100000,0.29000000,0.10000000,-0.03000000,0.07171807,-0.02228786,0.02039444,0.77000000,-0.00000000,-0.00000000
33,0,0.00100000,0.01300000,0.99800000,-0.26000000,-0.05000000,0.24000000,0.07140140,-0.02234876,0.02068675,0.78000000,-0.01000000,-0.00000000
34,0,0.00100000,0.01400000,1.00000000,0.06000000,0.03000000,0.19000000,0.07147182,-0.02231355,0.02090973,0.78000000,-0.01000000,-0.00000000
35,0,-0.00400000,0.01400000,1.00200000,-0.05000000,-0.02000000,0.00000000,0.06874879,-0.02340276,0.02090973,0.78000000,-0.01000000,-0.00000000
36,0,-0.00200000,0.01000000,0.99200000,0.12000000,-0.05000000,-0.24000000,0.06888026,-0.02345755,0.02064678,0.78000000,-0.01000000,-0.00000000
37,0,-0.00100000,0.01300000,0.99800000,0.01000000,-0.01000000,0.14000000,0.06889034,-0.02346762,0.02078788,0.79000000,-0.00000000,-0.00000000
38,0,0.00100000,0.01400000,1.00200000,0.06000000,0.10000000,-0.00000000,0.06895147,-0.02336574,0.02078788,0.79000000,-0.01000000,-0.00000000
39,0,-0.00300000,0.01400000,0.99600000,0.14000000,0.17000000,0.10000000,0.06910032,-0.02318499,0.02089420,0.79000000,-0.00000000,-0.00000000
40,0,0.00600000,0.01700000,1.00200000,-0.03000000,-0.02000000,-0.05000000,0.06906936,-0.02320563,0.02084261,0.78000000,-0.00000000,-0.00000000
41,0,-0.00400000,0.01400000,1.00100000,0.06000000,0.22000000,0.10000000,0.07240507,-0.01097473,0.02640211,0.78000000,-0.00000000,-0.00000000
42,0,-0.00200000,0.01800000,0.99800000,0.03000000,0.18000000,0.04000000,0.07243670,-0.01078489,0.02644429,0.78000000,-0.01000000,-0.00000000
43,0,-0.00400000,0.01400000,0.99700000,0.07000000,0.16000000,0.11000000,0.07250694,-0.01062435,0.02655466,0.78000000,-0.01000000,-0.00000000
44,0,0.00400000,0.01800000,1.00000000,0.22000000,0.02000000,0.10000000,0.07272663,-0.01060438,0.02665452,0.78000000,-0.00000000,-0.01000000
45,0,-0.00000000,0.01400000,1.00100000,-0.02000000,-0.05000000,-0.27000000,0.07270648,-0.01065477,0.02638246,0.79000000,-0.00000000,-0.01000000
46,0,-0.00300000,0.01700000,0.99900000,-0.02000000,0.47000000,-0.15000000,0.07268636,-0.01018195,0.02623156,0.79000000,0.00000000,-0.01000000
47,0,0.00100000,0.01200000,1.00700000,-0.08000000,0.11000000,0.04000000,0.06818255,-0.00398921,0.02848346,0.79000000,-0.00000000,-0.01000000
48,0,0.00100000,0.01200000,1.00000000,0.09000000,-0.00000000,-0.08000000,0.06827731,-0.00398921,0.02839923,0.79000000,-0.00000000,-0.01000000
49,0,-0.00300000,0.01500000,1.00100000,0.06000000,0.05000000,-0.04000000,0.06833749,-0.00393906,0.02835911,0.79000000,-0.00000000,-0.01000000
50,0,-0.00100000,0.00900000,0.99900000,0.20000000,-0.09000000,0.12000000,0.06853764,-0.00402913,0.02847920,0.79000000,-0.00000000,-0.01000000
51,0,0.00400000,0.01300000,1.00100000,0.03000000,0.03000000,-0.32000000,0.06856795,-0.00399882,0.02815591,0.79000000,-0.00000000,-0.01000000
52,0,0.00300000,0.01000000,0.99900000,0.06000000,-0.07000000,0.04000000,0.06862809,-0.00406899,0.02819601,0.79000000,-0.00000000,-0.01000000
53,0,0.00200000,0.01600000,0.99900000,0.23000000,0.16000000,-0.07000000,0.08137930,0.00480142,0.02431520,0.79000000,-0.00000000,-0.01000000
54,0,-0.00300000,0.00800000,1.00100000,-0.09000000,0.16000000,-0.02000000,0.08128494,0.00496916,0.02429423,0.79000000,-0.00000000,-0.01000000
55,0,-0.00200000,0.01200000,1.00200000,0.04000000,-0.23000000,-0.21000000,0.08132493,0.00473927,0.02408433,0.79000000,-0.00000000,-0.01000000
56,0,0.00500000,0.01900000,1.00300000,-0.26000000,-0.02000000,0.22000000,0.08106771,0.00471948,0.02430197,0.79000000,-0.00000000,-0.01000000
57,0,-0.00500000,0.01700000,0.99800000,0.01000000,0.13000000,0.22000000,0.08107770,0.00484933,0.02452172,0.79000000,-0.00000000,-0.01000000
58,0,0.00200000,0.01400000,1.00000000,0.07000000,0.20000000,0.16000000,0.08114738,0.00504843,0.02468100,0.80000000,-0.00000000,-0.01000000
59,0,-0.00200000,0.01600000,1.00100000,-0.22000000,0.06000000,0.07000000,0.06889261,0.00839064,0.02858024,0.80000000,-0.00000000,-0.01000000
60,0,-0.00100000,0.01500000,1.00200000,-0.04000000,0.18000000,0.32000000,0.06885071,0.00857919,0.02891544,0.80000000,0.00000000,-0.01000000
61,0,-0.00100000,0.01500000,0.99900000,-0.18000000,-0.12000000,-0.05000000,0.06867161,0.00845978,0.02886568,0.80000000,0.00000000,-0.01000000
62,0,-0.00500000,0.01100000,0.99900000,-0.34000000,-0.01000000,-0.13000000,0.06833500,0.00844988,0.02873698,0.80000000,0.00000000,-0.01000000
63,0,-0.00500000,0.01300000,1.00000000,-0.09000000,0.02000000,0.04000000,0.06824508,0.00846986,0.02877695,0.80000000,0.01000000,-0.01000000
64,0,0.00200000,0.01400000,0.99700000,0.07000000,0.06000000,-0.04000000,0.06831462,0.00852947,0.02873721,0.80000000,0.01000000,-0.01000000
65,0,0.00200000,0.01500000,1.00100000,0.15000000,-0.00000000,-0.05000000,0.07676610,0.00852947,0.02592005,0.80000000,0.01000000,-0.01000000
66,0,0.00000000,0.01200000,1.00200000,0.24000000,-0.26000000,-0.06000000,0.07702029,0.00825409,0.02585650,0.80000000,0.01000000,-0.01000000
67,0,-0.00400000,0.01300000,1.00500000,-0.14000000,-0.10000000,-0.20000000,0.07688009,0.00815394,0.02565621,0.80000000,0.01000000,-0.01000000
68,0,0.00100000,0.01000000,1.00200000,-0.14000000,-0.09000000,-0.22000000,0.07673952,0.00806357,0.02543531,0.80000000,0.01000000,-0.01000000
69,0,0.00200000,0.01900000,1.00000000,-0.10000000,-0.06000000,-0.10000000,0.07663990,0.00800380,0.02533569,0.80000000,0.01000000,-0.01000000
70,0,-0.00100000,0.01400000,1.00200000,0.02000000,-0.06000000,-0.26000000,0.07665983,0.00794401,0.02507661,0.80000000,0.01000000,-0.01000000
71,0,0.00400000,0.01800000,0.99700000,-0.06000000,-0.07000000,-0.12000000,0.07332990,0.00405910,0.01841677,0.80000000,0.01000000,-0.01000000
72,0,-0.00000000,0.01100000,1.00000000,0.03000000,0.06000000,0.04000000,0.07336146,0.00412221,0.01845884,0.80000000,0.01000000,-0.01000000
73,0,-0.00300000,0.01200000,0.99400000,-0.09000000,0.07000000,-0.41000000,0.07327023,0.00419316,0.01804325,0.80000000,0.01000000,-0.01000000
74,0,-0.00100000,0.01300000,1.00000000,-0.01000000,0.18000000,-0.21000000,0.07326019,0.00437394,0.01783235,0.80000000,0.01000000,-0.01000000
75,0,-0.00300000,0.01600000,1.00000000,-0.07000000,0.05000000,-0.02000000,0.07319054,0.00442369,0.01781245,0.80000000,0.01000000,-0.01000000
76,0,-0.00300000,0.01000000,1.00300000,0.04000000,0.01000000,0.04000000,0.07323025,0.00443362,0.01785216,0.79000000,0.02000000,-0.01000000
77,0,-0.00100000,0.01200000,0.99800000,-0.19000000,-0.04000000,0.04000000,0.06249542,0.00217366,0.02011213,0.79000000,0.02000000,-0.01000000
78,0,-0.00500000,0.01100000,0.99600000,-0.03000000,-0.13000000,0.09000000,0.06246407,0.00203779,0.02020618,0.79000000,0.02000000,-0.01000000
79,0,-0.00400000,0.00900000,1.00400000,-0.19000000,0.14000000,0.03000000,0.06227234,0.00217907,0.02023646,0.79000000,0.02000000,-0.01000000
80,0,0.00200000,0.01100000,1.00000000,0.21000000,-0.00000000,-0.10000000,0.06248115,0.00217907,0.02013703,0.79000000,0.02000000,-0.01000000
81,0,0.00100000,0.01400000,0.99900000,-0.03000000,-0.04000000,-0.30000000,0.06245137,0.00213936,0.01983923,0.79000000,0.02000000,-0.01000000
82,0,-0.00100000,0.01700000,1.00100000,-0.08000000,-0.04000000,0.09000000,0.06237169,0.00209952,0.01992887,0.79000000,0.02000000,-0.02000000
83,0,-0.00100000,0.01300000,1.00200000,0.31000000,-0.04000000,-0.14000000,0.07958397,-0.00012142,0.01215558,0.79000000,0.02000000,-0.02000000
84,0,0.00200000,0.01400000,1.00100000,-0.15000000,0.09000000,0.08000000,0.07942564,-0.00002642,0.01224003,0.79000000,0.02000000,-0.01000000
85,0,-0.00200000,0.01200000,1.00300000,-0.04000000,-0.06000000,0.25000000,0.07938508,-0.00008725,0.01249349,0.79000000,0.02000000,-0.01000000
86,0,0.00000000,0.01000000,0.99800000,0.23000000,0.29000000,-0.08000000,0.07961454,0.00020207,0.01241368,0.79000000,0.02000000,-0.01000000
87,0,0.00100000,0.01300000,0.99900000,-0.13000000,0.12000000,-0.14000000,0.07948516,0.00032150,0.01227435,0.79000000,0.02000000,-0.01000000
88,0,-0.00000000,0.01700000,1.00000000,-0.03000000,-0.23000000,0.00000000,0.07945523,0.00009204,0.01227435,0.79000000,0.02000000,-0.01000000
89,0,0.00100000,0.01400000,1.00000000,-0.09000000,0.27000000,0.21000000,0.07445944,0.01507940,0.02393118,0.79000000,0.02000000,-0.01000000
90,0,-0.00600000,0.01400000,1.00300000,0.25000000,0.11000000,0.00000000,0.07472405,0.01519582,0.02393118,0.79000000,0.02000000,-0.01000000
91,0,-0.00600000,0.00900000,1.00300000,-0.14000000,-0.21000000,-0.16000000,0.07458258,0.01498362,0.02376949,0.79000000,0.02000000,-0.01000000
92,0,-0.00300000,0.01100000,1.00200000,-0.09000000,0.10000000,0.04000000,0.07449305,0.01508309,0.02380928,0.79000000,0.02000000,-0.01000000
93,0,0.00400000,0.01500000,1.00000000,-0.01000000,0.17000000,-0.13000000,0.07448298,0.01525423,0.02367841,0.79000000,0.02000000,-0.01000000
94,0,0.00400000,0.01600000,1.00200000,0.26000000,0.09000000,0.01000000,0.07474280,0.01534417,0.02368841,0.79000000,0.02000000,-0.01000000
95,0,-0.00200000,0.01400000,0.99700000,0.13000000,0.29000000,-0.21000000,0.08198379,0.03149715,0.01199142,0.79000000,0.02000000,-0.01000000
96,0,-0.00200000,0.01300000,1.00200000,-0.04000000,-0.11000000,-0.00000000,0.08194179,0.03138164,0.01199142,0.79000000,0.02000000,-0.01000000
97,0,0.00300000,0.00900000,0.99800000,-0.00000000,0.07000000,0.01000000,0.08194179,0.03145271,0.01200157,0.79000000,0.02000000,-0.01000000
98,0,-0.00200000,0.01100000,0.99800000,-0.01000000,-0.18000000,-0.05000000,0.08193172,0.03127142,0.01195121,0.79000000,0.02000000,-0.01000000
99,0,0.00100000,0.01100000,0.99900000,-0.07000000,-0.04000000,0.13000000,0.08186197,0.03123156,0.01208075,0.79000000,0.02000000,-0.01000000
100,0,-0.00400000,0.00800000,1.00000000,-0.06000000,-0.09000000,0.01000000,0.08180215,0.03114184,0.01209072,0.78000000,0.02000000,-0.01000000
101,0,-0.00200000,0.01800000,0.99900000,-0.12000000,-0.07000000,0.06000000,0.07504821,0.02720204,0.01546769,0.78000000,0.02000000,-0.01000000
102,0,0.00200000,0.01600000,0.99600000,-0.08000000,0.17000000,0.18000000,0.07496317,0.02738274,0.01565903,0.79000000,0.02000000,-0.01000000
103,0,0.00300000,0.01600000,0.99800000,-0.15000000,0.12000000,-0.05000000,0.07481263,0.02750317,0.01560885,0.78000000,0.02000000,-0.01000000
104,0,0.00000000,0.01400000,0.99900000,-0.17000000,-0.23000000,-0.12000000,0.07464372,0.02727465,0.01548962,0.78000000,0.02000000,-0.01000000
105,0,-0.00500000,0.01500000,1.00100000,0.01000000,0.03000000,-0.03000000,0.07465368,0.02730453,0.01545974,0.78000000,0.02000000,-0.01000000
106,0,-0.00200000,0.01200000,1.00100000,-0.13000000,0.06000000,0.17000000,0.07452175,0.02736542,0.01563226,0.78000000,0.02000000,-0.01000000
107,0,-0.00200000,0.01400000,0.99700000,0.29000000,-0.08000000,0.13000000,0.09063062,0.02292159,0.02285347,0.79000000,0.02000000,-0.01000000
108,0,0.00400000,0.01500000,1.00200000,-0.01000000,0.02000000,0.16000000,0.09061999,0.02294284,0.02302351,0.79000000,0.02000000,-0.01000000
109,0,-0.00400000,0.01400000,1.00200000,-0.01000000,-0.11000000,0.06000000,0.09060996,0.02283247,0.02308371,0.79000000,0.02000000,-0.01000000
110,0,0.00400000,0.01400000,1.00000000,0.02000000,0.13000000,0.07000000,0.09062993,0.02296229,0.02315361,0.79000000,0.02000000,-0.01000000
111,0,-0.00000000,0.01300000,1.00000000,-0.19000000,-0.06000000,-0.26000000,0.09044106,0.02290265,0.02289516,0.78000000,0.02000000,-0.01000000
112,0,-0.00100000,0.01400000,0.99900000,-0.15000000,-0.04000000,-0.11000000,0.09029077,0.02286257,0.02278494,0.78000000,0.02000000,-0.01000000
113,0,0.00200000,0.01600000,1.00200000,0.22000000,-0.11000000,-0.01000000,0.10270431,0.01665580,0.02222069,0.78000000,0.02000000,-0.01000000
114,0,0.00500000,0.01300000,0.99800000,-0.10000000,0.31000000,-0.07000000,0.10259878,0.01698296,0.02214682,0.78000000,0.02000000,-0.01000000
115,0,0.00600000,0.01300000,0.99300000,0.15000000,-0.06000000,-0.01000000,0.10275014,0.01692241,0.02213673,0.78000000,0.02000000,-0.01000000
116,0,-0.00300000,0.01000000,0.99700000,-0.07000000,0.06000000,0.07000000,0.10267965,0.01698283,0.02220721,0.78000000,0.02000000,-0.01000000
117,0,0.00000000,0.00900000,0.99900000,-0.13000000,0.14000000,-0.01000000,0.10254962,0.01712286,0.02219721,0.78000000,0.02000000,-0.01000000
118,0,0.00100000,0.01300000,0.99900000,0.04000000,0.15000000,-0.13000000,0.10258942,0.01727212,0.02206786,0.78000000,0.02000000,-0.01000000
119,0,0.00000000,0.01100000,0.99800000,-0.18000000,-0.03000000,-0.05000000,0.09259047,0.01560563,0.01929037,0.78000000,0.02000000,-0.01000000
120,0,-0.00100000,0.01900000,0.99900000,-0.18000000,0.19000000,-0.07000000,0.09240068,0.01580596,0.01921656,0.78000000,0.02000000,-0.01000000
121,0,-0.00200000,0.01400000,0.99700000,0.06000000,0.04000000,-0.14000000,0.09246104,0.01584620,0.01907572,0.78000000,0.02000000,-0.01000000
122,0,-0.00100000,0.01300000,1.00100000,0.08000000,-0.05000000,0.12000000,0.09254037,0.01579662,0.01919473,0.78000000,0.02000000,-0.01000000
123,0,-0.00700000,0.01900000,0.99600000,0.06000000,0.09000000,0.11000000,0.09260050,0.01588681,0.01930497,0.78000000,0.03000000,-0.01000000
124,0,-0.00000000,0.01300000,1.00000000,0.32000000,0.21000000,0.02000000,0.09291845,0.01609547,0.01932484,0.78000000,0.03000000,-0.01000000
125,0,0.00500000,0.01600000,0.99700000,-0.05000000,-0.01000000,-0.05000000,0.09014008,0.01553979,0.01654647,0.78000000,0.03000000,-0.01000000
126,0,-0.00000000,0.00800000,1.00000000,0.18000000,-0.01000000,0.44000000,0.09032940,0.01552927,0.01700925,0.78000000,0.03000000,-0.01000000
127,0,-0.00100000,0.01500000,0.99800000,-0.02000000,-0.07000000,0.05000000,0.09030941,0.01545929,0.01705924,0.78000000,0.03000000,-0.01000000
128,0,0.00200000,0.01300000,1.00200000,0.00000000,-0.06000000,0.12000000,0.09030941,0.01539957,0.01717867,0.78000000,0.03000000,-0.01000000
129,0,0.00000000,0.01300000,1.00300000,0.09000000,0.31000000,0.14000000,0.09039984,0.01571106,0.01731934,0.78000000,0.03000000,-0.01000000
130,0,-0.00400000,0.01400000,0.99900000,-0.00000000,0.12000000,0.13000000,0.09039984,0.01583169,0.01745003,0.78000000,0.03000000,-0.01000000
131,0,0.00200000,0.01300000,1.00200000,0.15000000,0.22000000,-0.34000000,0.09876559,0.02810147,-0.00151235,0.78000000,0.03000000,-0.01000000
132,0,-0.00100000,0.01600000,0.99600000,0.09000000,-0.06000000,-0.00000000,0.09886401,0.02803586,-0.00151235,0.78000000,0.03000000,-0.01000000
133,0,0.00100000,0.01200000,1.00100000,-0.23000000,0.04000000,-0.04000000,0.09862967,0.02807661,-0.00155310,0.78000000,0.03000000,-0.01000000
134,0,-0.00400000,0.01600000,0.99700000,0.02000000,-0.10000000,-0.17000000,0.09864958,0.02797706,-0.00172234,0.78000000,0.03000000,-0.01000000
135,0,0.00100000,0.01700000,1.00300000,0.05000000,-0.08000000,-0.19000000,0.09869976,0.02789677,-0.00191302,0.78000000,0.03000000,-0.01000000
136,0,-0.00300000,0.01500000,1.00300000,0.12000000,-0.15000000,0.03000000,0.09881948,0.02774713,-0.00188309,0.78000000,0.03000000,-0.01000000
137,0,-0.00100000,0.01500000,0.99800000,0.09000000,0.09000000,0.04000000,0.10386734,0.03279499,0.00036040,0.78000000,0.03000000,-0.01000000
138,0,-0.00500000,0.01400000,0.99800000,-0.27000000,-0.24000000,-0.05000000,0.10358278,0.03254205,0.00030770,0.78000000,0.03000000,-0.01000000
139,0,-0.00000000,0.01400000,1.00000000,-0.17000000,0.16000000,-0.16000000,0.10341363,0.03270125,0.00014850,0.78000000,0.03000000,-0.01000000
140,0,0.00100000,0.01100000,1.00000000,0.10000000,0.03000000,0.09000000,0.10351449,0.03273151,0.00023928,0.78000000,0.03000000,-0.01000000
141,0,0.00100000,0.01400000,1.00000000,-0.20000000,-0.01000000,-0.30000000,0.10331501,0.03272154,-0.00005995,0.78000000,0.03000000,-0.01000000
142,0,-0.00300000,0.01300000,0.99800000,0.08000000,0.23000000,0.05000000,0.10339451,0.03295012,-0.00001026,0.78000000,0.03000000,-0.01000000
143,0,-0.00200000,0.01000000,1.00000000,-0.11000000,0.13000000,-0.23000000,0.10327958,0.03308595,-0.00025057,0.78000000,0.03000000,-0.01000000
144,0,0.00500000,0.01400000,0.99900000,0.20000000,0.11000000,0.23000000,0.11496716,0.03951412,0.01319015,0.78000000,0.03000000,-0.01000000
145,0,-0.00200000,0.01200000,0.99800000,-0.04000000,0.05000000,0.04000000,0.11492357,0.03956862,0.01323375,0.78000000,0.04000000,-0.01000000
146,0,-0.00400000,0.01200000,1.00200000,0.03000000,-0.29000000,-0.06000000,0.11495529,0.03926194,0.01317030,0.78000000,0.03000000,-0.01000000
147,0,0.00700000,0.01700000,0.99900000,-0.04000000,0.03000000,-0.16000000,0.11491277,0.03929383,0.01300022,0.78000000,0.03000000,-0.01000000
148,0,-0.00100000,0.01200000,0.99700000,0.01000000,-0.02000000,-0.21000000,0.11492333,0.03927272,0.01277850,0.78000000,0.03000000,-0.01000000
149,0,-0.00500000,0.01700000,0.99900000,-0.13000000,0.15000000,0.01000000,0.11478459,0.03943281,0.01278917,0.78000000,0.04000000,-0.01000000
150,0,-0.00400000,0.01000000,0.99500000,0.08000000,-0.07000000,-0.11000000,0.11928239,0.03549723,0.00660469,0.78000000,0.03000000,-0.01000000
151,0,-0.00400000,0.01200000,1.00000000,-0.14000000,0.18000000,0.04000000,0.11911195,0.03571637,0.00665339,0.78000000,0.03000000,-0.01000000
152,0,0.00200000,0.01200000,1.00000000,0.06000000,-0.19000000,0.10000000,0.11918332,0.03549035,0.00677235,0.77000000,0.03000000,-0.01000000
153,0,0.00100000,0.01300000,0.99800000,-0.15000000,0.11000000,0.04000000,0.11900699,0.03561966,0.00681937,0.77000000,0.03000000,-0.01000000
154,0,-0.00100000,0.01500000,1.00400000,0.11000000,0.06000000,-0.21000000,0.11913593,0.03568999,0.00657321,0.77000000,0.03000000,-0.02000000
155,0,-0.00200000,0.01500000,0.99700000,-0.09000000,-0.13000000,0.06000000,0.11902911,0.03553569,0.00664443,0.77000000,0.03000000,-0.01000000
156,0,-0.00000000,0.01200000,1.00200000,-0.17000000,0.15000000,0.11000000,0.10974352,0.04372885,0.01265275,0.77000000,0.03000000,-0.01000000
157,0,0.00100000,0.01200000,1.00100000,0.16000000,0.18000000,-0.02000000,0.10990921,0.04391525,0.01263204,0.77000000,0.03000000,-0.02000000
158,0,-0.00200000,0.01100000,1.00000000,0.06000000,-0.03000000,-0.10000000,0.10997054,0.04388458,0.01252982,0.77000000,0.03000000,-0.02000000
159,0,-0.00000000,0.01100000,1.00100000,0.02000000,0.18000000,0.29000000,0.10999057,0.04406485,0.01282024,0.77000000,0.03000000,-0.02000000
160,0,-0.00200000,0.01200000,1.00300000,0.13000000,0.26000000,0.17000000,0.11012259,0.04432888,0.01299288,0.77000000,0.03000000,-0.01000000
161,0,-0.00600000,0.01300000,1.00100000,-0.14000000,-0.03000000,-0.06000000,0.10997825,0.04429795,0.01293102,0.77000000,0.04000000,-0.02000000
162,0,-0.00400000,0.01500000,1.00100000,0.08000000,0.09000000,-0.02000000,0.11441555,0.04928992,0.01182170,0.77000000,0.04000000,-0.02000000
163,0,-0.00000000,0.01200000,1.00100000,-0.27000000,-0.02000000,0.20000000,0.11413498,0.04926913,0.01202952,0.77000000,0.04000000,-0.01000000
164,0,0.00100000,0.01600000,1.00400000,-0.19000000,-0.00000000,-0.01000000,0.11393429,0.04926913,0.01201896,0.77000000,0.04000000,-0.01000000
165,0,-0.00400000,0.01400000,1.00000000,-0.03000000,-0.00000000,0.21000000,0.11390406,0.04926913,0.01223057,0.77000000,0.04000000,-0.01000000
166,0,-0.00100000,0.01400000,0.99700000,-0.19000000,-0.19000000,-0.06000000,0.11370259,0.04906767,0.01216695,0.77000000,0.04000000,-0.01000000
167,0,0.00200000,0.01300000,0.99800000,-0.04000000,-0.03000000,-0.23000000,0.11366205,0.04903726,0.01193381,0.78000000,0.04000000,-0.01000000
168,0,0.00300000,0.01600000,1.00100000,0.13000000,0.03000000,-0.15000000,0.12089321,0.05070599,0.00359016,0.77000000,0.04000000,-0.01000000
169,0,0.00000000,0.00800000,1.00200000,0.21000000,0.13000000,-0.08000000,0.12111609,0.05084396,0.00350526,0.77000000,0.04000000,-0.01000000
170,0,0.00200000,0.00700000,1.00100000,-0.21000000,-0.05000000,0.06000000,0.12090102,0.05079275,0.00356670,0.77000000,0.03000000,-0.01000000
171,0,-0.00400000,0.01500000,1.00100000,0.20000000,0.08000000,0.12000000,0.12110065,0.05087260,0.00368648,0.77000000,0.04000000,-0.01000000
172,0,0.00300000,0.01200000,0.99700000,-0.06000000,-0.00000000,-0.04000000,0.12104109,0.05087260,0.00364677,0.77000000,0.03000000,-0.01000000
173,0,-0.00000000,0.01400000,1.00100000,-0.08000000,0.01000000,0.12000000,0.12095989,0.05088275,0.00376858,0.78000000,0.03000000,-0.01000000
174,0,-0.00100000,0.01200000,1.00100000,-0.26000000,-0.01000000,0.12000000,0.10634097,0.05032049,0.01051577,0.78000000,0.04000000,-0.01000000
175,0,-0.00600000,0.01500000,1.00500000,0.06000000,-0.05000000,-0.03000000,0.10640539,0.05026680,0.01048356,0.78000000,0.04000000,-0.01000000
176,0,-0.00200000,0.01100000,1.00100000,-0.01000000,-0.15000000,-0.05000000,0.10639535,0.05011623,0.01043337,0.78000000,0.03000000,-0.01000000
177,0,-0.00200000,0.01100000,1.00000000,-0.24000000,-0.10000000,0.01000000,0.10615455,0.05001589,0.01044340,0.77000000,0.03000000,-0.01000000
178,0,-0.00100000,0.01300000,1.00800000,-0.21000000,0.05000000,-0.05000000,0.10594409,0.05006600,0.01039329,0.77000000,0.03000000,-0.01000000
179,0,0.00100000,0.01400000,1.00400000,-0.08000000,0.23000000,0.01000000,0.10586378,0.05029688,0.01040333,0.77000000,0.03000000,-0.01000000
180,0,-0.00500000,0.01600000,1.00400000,0.00000000,0.18000000,-0.04000000,0.10586378,0.06030982,0.00817823,0.77000000,0.04000000,-0.01000000
181,0,-0.00200000,0.01300000,1.00200000,-0.19000000,0.05000000,0.18000000,0.10565040,0.06036598,0.00838038,0.77000000,0.04000000,-0.01000000
182,0,0.00100000,0.01400000,1.00300000,0.10000000,-0.16000000,-0.03000000,0.10575372,0.06020067,0.00834939,0.77000000,0.04000000,-0.01000000
183,0,0.00400000,0.01200000,1.00000000,0.24000000,-0.17000000,-0.05000000,0.10599561,0.06002933,0.00829899,0.78000000,0.04000000,-0.01000000
184,0,0.00200000,0.01100000,1.00100000,0.09000000,-0.09000000,-0.02000000,0.10608665,0.05993829,0.00827876,0.78000000,0.03000000,-0.01000000
185,0,0.00100000,0.01400000,0.99800000,0.14000000,-0.01000000,-0.05000000,0.10623002,0.05992805,0.00822756,0.78000000,0.03000000,-0.01000000
186,0,-0.00000000,0.01100000,1.00200000,0.09000000,-0.19000000,-0.13000000,0.11128840,0.04924926,0.00092101,0.78000000,0.03000000,-0.01000000
187,0,-0.00100000,0.01400000,1.00300000,-0.36000000,0.16000000,0.01000000,0.11090968,0.04941758,0.00093153,0.78000000,0.03000000,-0.01000000
188,0,0.00100000,0.01600000,0.99900000,0.09000000,-0.07000000,-0.29000000,0.11100041,0.04934701,0.00063917,0.78000000,0.03000000,-0.01000000
189,0,-0.00300000,0.01500000,0.99900000,-0.07000000,-0.09000000,0.10000000,0.11093004,0.04925653,0.00073970,0.78000000,0.03000000,-0.01000000
190,0,0.00000000,0.01500000,1.00400000,0.14000000,0.36000000,0.02000000,0.11107672,0.04963371,0.00076066,0.78000000,0.03000000,-0.01000000
191,0,0.00400000,0.01100000,1.00400000,0.20000000,-0.41000000,0.07000000,0.11128054,0.04921588,0.00083199,0.78000000,0.03000000,-0.01000000
192,0,-0.00500000,0.01300000,1.00400000,-0.13000000,-0.22000000,0.01000000,0.10404776,0.03697579,0.00138836,0.78000000,0.03000000,-0.01000000
193,0,-0.00500000,0.01800000,1.00100000,-0.07000000,-0.03000000,0.01000000,0.10396471,0.03694020,0.00140023,0.78000000,0.03000000,-0.01000000
194,0,-0.00000000,0.01400000,0.99700000,0.33000000,0.23000000,0.02000000,0.10434979,0.03720859,0.00142356,0.78000000,0.03000000,-0.01000000
195,0,0.00300000,0.00900000,1.00400000,0.04000000,-0.14000000,0.00000000,0.10439519,0.03704970,0.00142356,0.78000000,0.03000000,-0.01000000
196,0,-0.00200000,0.01800000,0.99600000,0.13000000,-0.01000000,0.20000000,0.10454324,0.03703831,0.00165132,0.78000000,0.03000000,-0.01000000
197,0,0.00400000,0.01800000,1.00100000,0.04000000,-0.11000000,-0.23000000,0.10458865,0.03691341,0.00139017,0.78000000,0.03000000,-0.01000000
198,0,-0.00200000,0.01600000,1.00100000,-0.14000000,0.10000000,-0.08000000,0.09694791,0.04237108,-0.00297597,0.78000000,0.03000000,-0.01000000
199,0,-0.00600000,0.01400000,0.99700000,-0.11000000,-0.02000000,0.08000000,0.09683161,0.04234994,-0.00289139,0.78000000,0.03000000,-0.01000000
200,0,-0.00000000,0.01500000,0.99900000,0.15000000,-0.04000000,0.27000000,0.09698151,0.04230996,-0.00262158,0.78000000,0.03000000,-0.01000000
201,0,0.00200000,0.01400000,1.00100000,-0.01000000,0.00000000,0.01000000,0.09697151,0.04230996,-0.00261157,0.78000000,0.03000000,-0.01000000
202,0,0.00100000,0.01900000,0.99800000,0.07000000,-0.09000000,0.10000000,0.09704087,0.04222078,-0.00251247,0.78000000,0.03000000,-0.01000000
203,0,0.00200000,0.01000000,0.99900000,-0.21000000,-0.06000000,0.12000000,0.09682947,0.04216038,-0.00239167,0.78000000,0.03000000,-0.01000000
204,0,0.00200000,0.01500000,0.99900000,-0.07000000,0.00000000,-0.02000000,0.09286807,0.04216038,-0.00352350,0.78000000,0.03000000,-0.01000000
205,0,0.00400000,0.01800000,1.00000000,0.06000000,0.05000000,-0.08000000,0.09293112,0.04221292,-0.00360756,0.78000000,0.03000000,-0.01000000
206,0,-0.00200000,0.01200000,1.00000000,0.08000000,0.31000000,0.08000000,0.09301068,0.04252123,-0.00352800,0.78000000,0.03000000,-0.01000000
207,0,0.00200000,0.02000000,0.99500000,-0.22000000,-0.12000000,-0.14000000,0.09279262,0.04240228,-0.00366677,0.78000000,0.03000000,-0.01000000
208,0,0.00000000,0.00800000,1.00100000,0.20000000,-0.07000000,0.04000000,0.09299276,0.04233223,-0.00362674,0.78000000,0.03000000,-0.01000000
209,0,-0.00300000,0.01100000,0.99900000,-0.18000000,0.04000000,0.05000000,0.09281332,0.04237211,-0.00357689,0.78000000,0.03000000,-0.01000000
210,0,-0.00100000,0.01000000,1.00000000,-0.07000000,-0.04000000,-0.17000000,0.08893225,0.04015435,-0.01300235,0.78000000,0.03000000,-0.01000000
211,0,0.00200000,0.01200000,1.00100000,-0.07000000,-0.05000000,0.12000000,0.08885867,0.04010180,-0.01287622,0.78000000,0.03000000,-0.01000000
212,0,-0.00300000,0.01200000,0.99900000,0.21000000,-0.09000000,-0.08000000,0.08906913,0.04001160,-0.01295640,0.78000000,0.03000000,-0.01000000
213,0,-0.00500000,0.01400000,0.99400000,0.04000000,-0.07000000,0.06000000,0.08910916,0.03994155,-0.01289635,0.78000000,0.03000000,-0.01000000
214,0,0.00100000,0.01500000,0.99900000,0.14000000,0.18000000,-0.28000000,0.08925000,0.04012263,-0.01317803,0.77000000,0.03000000,-0.01000000
215,0,0.00400000,0.01400000,1.00000000,-0.01000000,-0.28000000,-0.20000000,0.08924002,0.03984315,-0.01337765,0.77000000,0.03000000,-0.01000000
216,0,-0.00100000,0.01300000,0.99900000,-0.07000000,-0.01000000,0.08000000,0.08533551,0.03928537,-0.00891536,0.77000000,0.03000000,-0.01000000
217,0,-0.00000000,0.01600000,1.00100000,0.08000000,0.04000000,-0.01000000,0.08544386,0.03933954,-0.00892891,0.78000000,0.03000000,-0.01000000
218,0,0.00200000,0.01400000,0.99900000,-0.07000000,0.21000000,-0.05000000,0.08535315,0.03961168,-0.00899370,0.78000000,0.03000000,-0.01000000
219,0,-0.00300000,0.01300000,1.00000000,-0.17000000,-0.20000000,0.28000000,0.08512847,0.03934735,-0.00862364,0.77000000,0.03000000,-0.01000000
220,0,0.00100000,0.01500000,0.99700000,-0.12000000,-0.02000000,0.01000000,0.08497198,0.03932127,-0.00861060,0.77000000,0.03000000,-0.01000000
221,0,0.00300000,0.01400000,1.00200000,-0.06000000,-0.20000000,-0.17000000,0.08489020,0.03904864,-0.00884233,0.77000000,0.03000000,-0.01000000
222,0,-0.00500000,0.01500000,1.00000000,0.05000000,-0.12000000,-0.11000000,0.08762838,0.03247700,-0.01486634,0.77000000,0.03000000,-0.01000000
223,0,-0.00100000,0.01500000,1.00000000,-0.15000000,-0.12000000,0.16000000,0.08741697,0.03230787,-0.01464083,0.77000000,0.03000000,-0.01000000
224,0,0.00100000,0.01300000,1.00000000,0.19000000,0.11000000,-0.12000000,0.08766491,0.03245142,-0.01479743,0.77000000,0.03000000,-0.01000000
225,0,-0.00500000,0.01600000,1.00500000,0.10000000,0.10000000,-0.00000000,0.08779353,0.03258003,-0.01479743,0.77000000,0.03000000,-0.01000000
226,0,-0.00100000,0.00800000,1.00200000,0.16000000,-0.01000000,-0.05000000,0.08800015,0.03256712,-0.01486200,0.77000000,0.03000000,-0.02000000
227,0,0.00000000,0.01400000,1.00200000,0.01000000,-0.24000000,-0.06000000,0.08801308,0.03225673,-0.01493959,0.77000000,0.03000000,-0.02000000
228,0,-0.00100000,0.01400000,1.00100000,0.06000000,0.08000000,-0.09000000,0.09125537,0.03657978,-0.01980303,0.77000000,0.03000000,-0.02000000
229,0,0.00100000,0.01300000,1.00500000,0.13000000,-0.18000000,0.13000000,0.09143369,0.03633287,-0.01962470,0.77000000,0.03000000,-0.02000000
230,0,-0.00100000,0.01000000,1.00100000,-0.23000000,0.11000000,0.04000000,0.09112593,0.03648007,-0.01957118,0.77000000,0.03000000,-0.02000000
231,0,0.00000000,0.01800000,1.00200000,-0.01000000,0.04000000,-0.00000000,0.09111260,0.03653337,-0.01957118,0.77000000,0.03000000,-0.02000000
232,0,0.00300000,0.01200000,0.99900000,0.37000000,-0.09000000,-0.08000000,0.09159473,0.03641610,-0.01967542,0.77000000,0.03000000,-0.02000000
233,0,-0.00600000,0.01400000,1.00300000,-0.01000000,0.09000000,0.00000000,0.09158122,0.03653771,-0.01967542,0.77000000,0.03000000,-0.02000000
234,0,0.00300000,0.00600000,1.00100000,0.04000000,0.06000000,0.00000000,0.09373909,0.03977450,-0.01967542,0.77000000,0.03000000,-0.02000000
235,0,-0.00100000,0.01600000,1.00400000,-0.03000000,-0.13000000,0.22000000,0.09369857,0.03959894,-0.01937831,0.77000000,0.03000000,-0.01000000
236,0,-0.00200000,0.01200000,0.99800000,0.05000000,0.06000000,0.14000000,0.09376244,0.03967557,-0.01919949,0.77000000,0.03000000,-0.01000000
237,0,-0.00400000,0.01500000,1.00000000,0.14000000,0.01000000,0.38000000,0.09393979,0.03968824,-0.01871810,0.77000000,0.03000000,-0.01000000
238,0,0.00200000,0.01500000,0.99800000,-0.23000000,-0.06000000,-0.38000000,0.09364552,0.03961147,-0.01920429,0.77000000,0.03000000,-0.01000000
239,0,0.00200000,0.01500000,1.00000000,0.06000000,-0.22000000,0.00000000,0.09372152,0.03933277,-0.01920429,0.77000000,0.03000000,-0.01000000
240,0,-0.00100000,0.01000000,1.00100000,0.04000000,0.35000000,0.12000000,0.09591791,0.05855112,-0.01261514,0.77000000,0.03000000,-0.01000000
241,0,0.00000000,0.01000000,0.99600000,0.19000000,0.11000000,-0.23000000,0.09615851,0.05869042,-0.01290640,0.78000000,0.03000000,-0.01000000
242,0,0.00300000,0.01500000,0.99600000,-0.10000000,-0.00000000,-0.07000000,0.09603495,0.05869042,-0.01299289,0.78000000,0.03000000,-0.01000000
243,0,-0.00300000,0.01600000,1.00000000,-0.19000000,0.06000000,-0.09000000,0.09579707,0.05876554,-0.01310558,0.78000000,0.03000000,-0.01000000
244,0,-0.00300000,0.01400000,1.00100000,-0.04000000,-0.30000000,0.11000000,0.09574788,0.05839666,-0.01297032,0.77000000,0.03000000,-0.01000000
245,0,0.00500000,0.01600000,0.99900000,0.12000000,0.13000000,0.05000000,0.09589816,0.05855945,-0.01290770,0.78000000,0.03000000,-0.01000000
246,0,0.00000000,0.01300000,1.00200000,0.12000000,0.13000000,0.10000000,0.10241749,0.06562207,-0.00747492,0.78000000,0.03000000,-0.01000000
247,0,0.00100000,0.01500000,0.99700000,-0.11000000,-0.00000000,-0.05000000,0.10227096,0.06562207,-0.00754153,0.78000000,0.03000000,-0.01000000
248,0,0.00600000,0.01500000,1.00300000,0.16000000,-0.02000000,0.07000000,0.10248513,0.06559530,-0.00744783,0.78000000,0.03000000,-0.01000000
249,0,-0.00200000,0.01800000,1.00100000,0.42000000,-0.08000000,-0.09000000,0.10303102,0.06549132,-0.00756480,0.78000000,0.03000000,-0.01000000
250,0,0.00300000,0.01700000,0.99800000,0.22000000,-0.11000000,0.07000000,0.10331313,0.06535027,-0.00747504,0.78000000,0.03000000,-0.01000000
251,0,-0.00000000,0.01600000,0.99900000,0.11000000,-0.15000000,0.01000000,0.10345554,0.06515606,-0.00746209,0.78000000,0.03000000,-0.01000000
252,0,0.00600000,0.01200000,1.00200000,0.09000000,-0.03000000,-0.06000000,0.10833546,0.06352942,-0.01071537,0.78000000,0.03000000,-0.01000000
253,0,-0.00900000,0.01400000,0.99800000,-0.06000000,-0.21000000,-0.26000000,0.10825094,0.06323360,-0.01108163,0.78000000,0.03000000,-0.01000000
254,0,-0.00100000,0.01000000,0.99900000,-0.07000000,-0.03000000,0.29000000,0.10816102,0.06319506,-0.01070913,0.78000000,0.03000000,-0.01000000
255,0,-0.00500000,0.01300000,1.00500000,-0.07000000,0.08000000,-0.10000000,0.10807186,0.06329696,-0.01083650,0.78000000,0.03000000,-0.01000000
256,0,-0.00100000,0.01400000,0.99900000,0.14000000,-0.13000000,-0.28000000,0.10825005,0.06313150,-0.01119288,0.78000000,0.03000000,-0.01000000
257,0,0.00100000,0.01400000,1.00000000,-0.16000000,-0.09000000,0.01000000,0.10801875,0.06300139,-0.01117843,0.78000000,0.03000000,-0.01000000
258,0,-0.00300000,0.01500000,0.99800000,-0.03000000,-0.00000000,0.01000000,0.10637678,0.06300139,-0.01063110,0.78000000,0.03000000,-0.01000000
259,0,-0.00400000,0.01200000,0.99800000,-0.04000000,0.01000000,0.01000000,0.10631954,0.06301570,-0.01061679,0.78000000,0.03000000,-0.01000000
260,0,-0.00300000,0.01300000,1.00100000,-0.16000000,0.06000000,0.07000000,0.10609946,0.06309823,-0.01052051,0.78000000,0.03000000,-0.01000000
261,0,-0.00100000,0.01500000,1.00100000,-0.23000000,0.22000000,0.06000000,0.10579197,0.06339236,-0.01044029,0.78000000,0.03000000,-0.01000000
262,0,0.00300000,0.01300000,1.00300000,-0.17000000,0.01000000,-0.00000000,0.10556959,0.06340544,-0.01044029,0.78000000,0.03000000,-0.01000000
263,0,-0.00100000,0.01400000,1.00200000,-0.11000000,0.07000000,-0.09000000,0.10542516,0.06349735,-0.01055847,0.78000000,0.03000000,-0.01000000
264,0,0.00100000,0.01400000,1.00400000,-0.12000000,0.00000000,-0.01000000,0.09862263,0.06349735,-0.01112534,0.78000000,0.03000000,-0.01000000
265,0,0.00100000,0.01400000,1.00100000,0.13000000,0.03000000,0.10000000,0.09880393,0.06353919,-0.01098588,0.78000000,0.03000000,-0.01000000
266,0,0.00200000,0.01600000,1.00000000,0.15000000,-0.11000000,0.16000000,0.09900293,0.06339326,-0.01077362,0.78000000,0.03000000,-0.01000000
267,0,0.00800000,0.01100000,0.99600000,-0.13000000,0.18000000,-0.11000000,0.09883419,0.06362691,-0.01091640,0.78000000,0.03000000,-0.01000000
268,0,-0.00100000,0.02100000,0.99900000,0.02000000,0.15000000,0.22000000,0.09886204,0.06383585,-0.01060996,0.78000000,0.03000000,-0.01000000
269,0,-0.00100000,0.01100000,1.00200000,0.04000000,-0.04000000,-0.07000000,0.09891737,0.06378052,-0.01070678,0.78000000,0.03000000,-0.01000000
270,0,0.00500000,0.01400000,1.00600000,0.05000000,-0.14000000,-0.05000000,0.09898341,0.06359562,-0.01077281,0.78000000,0.03000000,-0.01000000
271,0,-0.00100000,0.01100000,1.00200000,0.27000000,-0.24000000,-0.11000000,0.11351320,0.05068025,-0.01669236,0.78000000,0.03000000,-0.01000000
272,0,0.00000000,0.01000000,0.99700000,-0.19000000,0.05000000,0.23000000,0.11325547,0.05074808,-0.01638037,0.78000000,0.03000000,-0.01000000
273,0,-0.00200000,0.01400000,0.99800000,0.05000000,0.15000000,0.19000000,0.11332028,0.05094250,-0.01613410,0.78000000,0.03000000,-0.01000000
274,0,-0.00100000,0.01300000,0.99600000,0.24000000,0.16000000,-0.09000000,0.11363032,0.05114920,-0.01625037,0.78000000,0.03000000,-0.01000000
275,0,0.00100000,0.01600000,0.99900000,0.15000000,0.29000000,-0.10000000,0.11382674,0.05152895,-0.01638132,0.78000000,0.03000000,-0.01000000
276,0,-0.00200000,0.01800000,0.99900000,0.03000000,-0.15000000,-0.15000000,0.11386674,0.05132899,-0.01658128,0.78000000,0.03000000,-0.01000000
277,0,0.00100000,0.01500000,1.00100000,0.02000000,-0.07000000,-0.06000000,0.11496521,0.04748435,-0.01987669,0.78000000,0.03000000,-0.01000000
278,0,0.00400000,0.01000000,1.00100000,-0.06000000,-0.07000000,0.01000000,0.11487934,0.04738417,-0.01986238,0.78000000,0.03000000,-0.01000000
279,0,0.00700000,0.00800000,0.99800000,0.18000000,-0.00000000,0.19000000,0.11512857,0.04738417,-0.01959930,0.78000000,0.03000000,-0.01000000
280,0,-0.00200000,0.01300000,0.99800000,0.08000000,0.10000000,-0.20000000,0.11523855,0.04752165,-0.01987427,0.78000000,0.03000000,-0.01000000
281,0,-0.00100000,0.01300000,1.00000000,0.02000000,-0.06000000,0.22000000,0.11526589,0.04743965,-0.01957359,0.78000000,0.03000000,-0.01000000
282,0,-0.00400000,0.01100000,0.99900000,0.12000000,0.18000000,-0.03000000,0.11543533,0.04769381,-0.01961595,0.78000000,0.03000000,-0.01000000
283,0,-0.00100000,0.01100000,1.00100000,-0.09000000,-0.01000000,-0.09000000,0.11061509,0.04715823,-0.02443619,0.78000000,0.03000000,-0.01000000
284,0,0.00100000,0.01200000,0.99600000,-0.19000000,-0.06000000,-0.07000000,0.11034481,0.04707288,-0.02453576,0.78000000,0.03000000,-0.01000000
285,0,0.00100000,0.01000000,1.00400000,0.19000000,0.19000000,0.05000000,0.11065418,0.04738225,-0.02445435,0.78000000,0.03000000,-0.01000000
286,0,-0.00400000,0.01400000,1.00200000,0.06000000,-0.06000000,0.24000000,0.11074029,0.04729614,-0.02410992,0.78000000,0.03000000,-0.01000000
287,0,0.00200000,0.01200000,1.00100000,0.13000000,0.16000000,0.02000000,0.11091859,0.04751558,-0.02408249,0.78000000,0.03000000,-0.01000000
288,0,-0.00200000,0.01100000,1.00000000,0.13000000,-0.15000000,0.07000000,0.11110553,0.04729988,-0.02398183,0.78000000,0.03000000,-0.01000000
289,0,-0.00100000,0.01500000,1.00000000,0.15000000,-0.05000000,0.11000000,0.11913672,0.04462282,-0.01809229,0.78000000,0.03000000,-0.01000000
290,0,0.00100000,0.01300000,0.99800000,0.12000000,-0.09000000,-0.08000000,0.11931638,0.04448807,-0.01821206,0.78000000,0.03000000,-0.01000000
291,0,-0.00200000,0.01500000,0.99900000,0.18000000,0.09000000,0.24000000,0.11956414,0.04461196,-0.01788170,0.78000000,0.03000000,-0.01000000
292,0,-0.00100000,0.01100000,0.99500000,0.26000000,-0.00000000,-0.18000000,0.11992141,0.04461196,-0.01812904,0.78000000,0.03000000,-0.01000000
293,0,0.00100000,0.01800000,0.99900000,-0.02000000,0.18000000,0.07000000,0.11989382,0.04486033,-0.01803245,0.78000000,0.03000000,-0.01000000
294,0,-0.00300000,0.01000000,0.99900000,0.04000000,-0.13000000,-0.01000000,0.11995689,0.04465535,-0.01804822,0.78000000,0.03000000,-0.01000000
295,0,-0.00200000,0.01500000,0.99900000,0.01000000,0.03000000,0.08000000,0.12049740,0.04627688,-0.01372413,0.78000000,0.03000000,-0.01000000
296,0,-0.00200000,0.01400000,0.99900000,0.17000000,-0.09000000,0.35000000,0.12074814,0.04614413,-0.01320790,0.78000000,0.03000000,-0.01000000
297,0,-0.00500000,0.01300000,0.99900000,0.21000000,0.05000000,0.01000000,0.12103075,0.04621142,-0.01319444,0.78000000,0.03000000,-0.01000000
298,0,-0.00300000,0.01400000,1.00000000,0.01000000,0.10000000,-0.01000000,0.12104416,0.04634556,-0.01320786,0.78000000,0.03000000,-0.01000000
299,0,-0.00100000,0.01100000,1.00300000,-0.28000000,0.14000000,0.04000000,0.12066215,0.04653657,-0.01315328,0.78000000,0.03000000,-0.01000000
300,0,-0.00100000,0.01300000,0.99800000,0.17000000,0.08000000,0.31000000,0.12091447,0.04665531,-0.01269316,0.78000000,0.03000000,-0.01000000
301,0,0.00100000,0.01000000,1.00100000,-0.08000000,0.06000000,0.22000000,0.11663660,0.04986371,-0.00092903,0.78000000,0.03000000,-0.01000000
302,0,0.00000000,0.01200000,0.99700000,-0.12000000,-0.00000000,0.06000000,0.11646050,0.04986371,-0.00084097,0.78000000,0.03000000,-0.00000000
303,0,0.00000000,0.01600000,1.00200000,-0.11000000,0.12000000,0.01000000,0.11629565,0.05004354,-0.00082599,0.78000000,0.03000000,-0.01000000
304,0,0.00000000,0.01300000,0.99900000,-0.29000000,0.12000000,-0.02000000,0.11583072,0.05023593,-0.00085805,0.78000000,0.03000000,-0.01000000
305,0,-0.00300000,0.01200000,1.00300000,0.21000000,-0.03000000,0.20000000,0.11624735,0.05017641,-0.00046126,0.78000000,0.03000000,-0.01000000
306,0,-0.00100000,0.01100000,1.00400000,-0.06000000,-0.07000000,-0.16000000,0.11614391,0.05005572,-0.00073711,0.78000000,0.03000000,-0.00000000
307,0,0.00200000,0.01400000,1.00000000,-0.06000000,0.01000000,0.06000000,0.11299786,0.05058006,0.00240893,0.78000000,0.03000000,-0.01000000
308,0,0.00100000,0.01600000,1.00100000,0.01000000,0.00000000,-0.18000000,0.11301173,0.05058006,0.00215927,0.78000000,0.03000000,-0.01000000
309,0,-0.00000000,0.01800000,0.99700000,0.17000000,-0.00000000,0.20000000,0.11329604,0.05058006,0.00249375,0.78000000,0.03000000,-0.01000000
310,0,-0.00000000,0.01700000,1.00100000,-0.04000000,-0.17000000,0.06000000,0.11322201,0.05026544,0.00260479,0.78000000,0.03000000,-0.01000000
311,0,0.00300000,0.01200000,1.00200000,0.11000000,-0.20000000,-0.07000000,0.11343390,0.04988018,0.00246995,0.78000000,0.03000000,-0.01000000
312,0,0.00300000,0.01600000,1.00300000,0.02000000,-0.06000000,-0.11000000,0.11346529,0.04978601,0.00229729,0.78000000,0.03000000,-0.00000000
313,0,0.00200000,0.00900000,0.99800000,0.04000000,-0.01000000,-0.00000000,0.11558543,0.04925597,0.00229729,0.78000000,0.03000000,-0.01000000
314,0,-0.00100000,0.01700000,1.00100000,0.17000000,-0.10000000,0.14000000,0.11582875,0.04911284,0.00249768,0.78000000,0.02000000,-0.00000000
315,0,-0.00600000,0.01400000,0.99800000,-0.10000000,0.01000000,-0.08000000,0.11566528,0.04912919,0.00236690,0.78000000,0.03000000,-0.01000000
316,0,-0.00000000,0.01500000,0.99800000,-0.07000000,0.15000000,-0.36000000,0.11555538,0.04936470,0.00180167,0.78000000,0.03000000,-0.01000000
317,0,-0.00100000,0.01300000,0.99500000,-0.11000000,0.04000000,0.12000000,0.11538235,0.04942762,0.00199042,0.78000000,0.03000000,-0.01000000
318,0,-0.00600000,0.01500000,1.00100000,0.08000000,0.21000000,0.22000000,0.11553972,0.04984070,0.00242318,0.78000000,0.03000000,-0.00000000
319,0,-0.00000000,0.01400000,0.99700000,-0.01000000,0.13000000,-0.23000000,0.11501505,0.05666131,-0.00964406,0.78000000,0.03000000,-0.00000000
320,0,0.00200000,0.01400000,1.00300000,0.17000000,0.08000000,0.13000000,0.11527261,0.05678251,-0.00944711,0.78000000,0.03000000,-0.00000000
321,0,0.00000000,0.01000000,1.00000000,-0.11000000,0.17000000,-0.04000000,0.11511165,0.05703127,-0.00950564,0.78000000,0.03000000,-0.00000000
322,0,0.00100000,0.01300000,0.99500000,-0.19000000,-0.09000000,0.05000000,0.11483548,0.05690046,-0.00943297,0.78000000,0.03000000,-0.00000000
323,0,-0.00100000,0.01300000,0.99900000,0.08000000,-0.00000000,-0.08000000,0.11497019,0.05690046,-0.00956767,0.78000000,0.03000000,-0.00000000
324,0,0.00000000,0.01100000,1.00400000,0.21000000,0.44000000,0.02000000,0.11533325,0.05766116,-0.00953309,0.78000000,0.03000000,-0.00000000
325,0,-0.00000000,0.01200000,0.99600000,-0.10000000,0.06000000,-0.10000000,0.11005398,0.06082872,-0.01481236,0.78000000,0.03000000,-0.00000000
326,0,0.00400000,0.01100000,1.00100000,-0.03000000,0.21000000,0.07000000,0.11001403,0.06110842,-0.01471913,0.78000000,0.03000000,-0.00000000
327,0,0.00400000,0.01400000,1.00200000,0.03000000,-0.10000000,0.09000000,0.11005285,0.06097900,-0.01460264,0.78000000,0.03000000,-0.00000000
328,0,-0.00500000,0.01400000,1.00200000,-0.05000000,-0.17000000,0.29000000,0.10998732,0.06075618,-0.01422254,0.78000000,0.03000000,-0.00000000
329,0,-0.00100000,0.01100000,0.99700000,0.11000000,0.16000000,0.19000000,0.11012935,0.06096276,-0.01397723,0.78000000,0.03000000,-0.00000000
330,0,-0.00400000,0.01200000,1.00000000,-0.04000000,0.08000000,0.18000000,0.11007726,0.06106693,-0.01374285,0.78000000,0.03000000,-0.00000000
331,0,-0.00200000,0.01200000,1.00700000,-0.00000000,0.04000000,-0.08000000,0.11007726,0.06325933,-0.01812764,0.78000000,0.03000000,-0.00000000
332,0,-0.00200000,0.01500000,0.99900000,-0.01000000,0.03000000,-0.36000000,0.11006319,0.06330154,-0.01863417,0.78000000,0.03000000,-0.00000000
333,0,0.00100000,0.01600000,1.00000000,-0.05000000,-0.06000000,-0.08000000,0.10999166,0.06321570,-0.01874861,0.78000000,0.03000000,-0.00000000
334,0,-0.00300000,0.01900000,1.00000000,-0.07000000,0.15000000,-0.08000000,0.10987651,0.06346244,-0.01888021,0.78000000,0.03000000,-0.00000000
335,0,0.00200000,0.01100000,1.00000000,0.04000000,-0.14000000,0.07000000,0.10992956,0.06327678,-0.01878738,0.78000000,0.03000000,-0.00000000
336,0,0.00100000,0.01400000,1.00500000,0.00000000,-0.18000000,-0.16000000,0.10992956,0.06303261,-0.01900441,0.78000000,0.03000000,-0.00000000
337,0,0.00400000,0.01600000,0.99800000,-0.11000000,0.02000000,-0.26000000,0.10404857,0.06410188,-0.03290494,0.78000000,0.03000000,-0.00000000
338,0,-0.00300000,0.01600000,0.99900000,0.10000000,-0.16000000,-0.09000000,0.10419087,0.06387421,-0.03303301,0.78000000,0.03000000,-0.00000000
339,0,-0.00300000,0.01700000,1.00000000,0.14000000,-0.16000000,-0.07000000,0.10437580,0.06366286,-0.03312547,0.78000000,0.03000000,-0.00000000
340,0,-0.00000000,0.01300000,0.99900000,0.09000000,0.12000000,-0.44000000,0.10449365,0.06382000,-0.03370165,0.78000000,0.04000000,-0.01000000
341,0,-0.00100000,0.01500000,0.99900000,-0.03000000,0.01000000,-0.03000000,0.10445413,0.06383317,-0.03374118,0.78000000,0.04000000,-0.00000000
342,0,0.00000000,0.01300000,0.99900000,-0.01000000,0.12000000,0.16000000,0.10444033,0.06399872,-0.03352044,0.78000000,0.04000000,-0.01000000
343,0,-0.00200000,0.01400000,1.00400000,-0.19000000,-0.01000000,0.12000000,0.09418826,0.06345914,-0.02704545,0.78000000,0.03000000,-0.00000000
344,0,-0.00100000,0.01200000,1.00100000,-0.02000000,0.07000000,-0.06000000,0.09415643,0.06357053,-0.02714093,0.78000000,0.03000000,-0.00000000
345,0,-0.00400000,0.01300000,1.00100000,0.01000000,0.06000000,0.09000000,0.09416961,0.06364963,-0.02702228,0.78000000,0.03000000,-0.00000000
346,0,-0.00000000,0.01100000,1.00400000,0.05000000,-0.12000000,-0.08000000,0.09423495,0.06349283,-0.02712681,0.78000000,0.03000000,-0.00000000
347,0,0.00100000,0.01300000,1.00300000,0.22000000,-0.07000000,-0.10000000,0.09453054,0.06339878,-0.02726117,0.78000000,0.03000000,-0.00000000
348,0,-0.00400000,0.01600000,0.99900000,-0.19000000,-0.04000000,0.09000000,0.09422094,0.06333360,-0.02711452,0.78000000,0.03000000,-0.00000000
349,0,-0.00200000,0.01500000,1.00000000,0.10000000,0.20000000,0.17000000,0.09963079,0.07415330,-0.01791778,0.79000000,0.03000000,-0.00000000
350,0,0.00200000,0.01400000,0.99900000,-0.15000000,0.02000000,0.01000000,0.09942546,0.07418068,-0.01790409,0.78000000,0.03000000,-0.00000000
351,0,-0.00100000,0.01500000,0.99800000,0.10000000,-0.19000000,-0.10000000,0.09955495,0.07393463,-0.01803359,0.79000000,0.03000000,-0.00000000
352,0,-0.00200000,0.00800000,1.00100000,-0.12000000,0.09000000,0.15000000,0.09939733,0.07405285,-0.01783655,0.78000000,0.03000000,-0.00000000
353,0,0.00200000,0.01700000,1.00200000,0.00000000,0.11000000,0.12000000,0.09939733,0.07419929,-0.01767681,0.78000000,0.03000000,-0.00000000
354,0,0.00000000,0.01100000,1.00300000,-0.04000000,0.18000000,-0.18000000,0.09934544,0.07443276,-0.01791029,0.78000000,0.03000000,-0.00000000
355,0,-0.00100000,0.01500000,1.00400000,-0.08000000,-0.10000000,-0.02000000,0.09502785,0.06903577,-0.01898969,0.78000000,0.03000000,-0.00000000
356,0,0.00600000,0.01100000,1.00100000,-0.02000000,0.12000000,-0.25000000,0.09499909,0.06920830,-0.01934913,0.78000000,0.03000000,-0.00000000
357,0,-0.00100000,0.01300000,1.00500000,-0.13000000,-0.27000000,0.07000000,0.09482135,0.06883916,-0.01925343,0.78000000,0.03000000,0.00000000
358,0,-0.00100000,0.01400000,1.00000000,-0.19000000,-0.01000000,0.17000000,0.09456055,0.06882543,-0.01902007,0.78000000,0.03000000,-0.00000000
359,0,0.00400000,0.01300000,1.00000000,-0.02000000,0.12000000,0.13000000,0.09453317,0.06898966,-0.01884215,0.78000000,0.03000000,0.00000000
360,0,-0.00200000,0.00800000,1.00200000,0.08000000,-0.12000000,-0.24000000,0.09464604,0.06882037,-0.01918075,0.78000000,0.03000000,-0.00000000
361,0,-0.00300000,0.01400000,1.00000000,-0.03000000,-0.10000000,-0.02000000,0.09300467,0.06334913,-0.02027500,0.78000000,0.04000000,-0.00000000
362,0,-0.00000000,0.01100000,0.99900000,0.30000000,-0.15000000,0.13000000,0.09345760,0.06312266,-0.02007873,0.78000000,0.04000000,-0.00000000
363,0,-0.00600000,0.01500000,0.99800000,-0.01000000,-0.09000000,0.07000000,0.09344388,0.06299923,-0.01998272,0.78000000,0.04000000,-0.00000000
364,0,-0.00000000,0.01400000,1.00100000,-0.15000000,0.22000000,0.09000000,0.09323376,0.06330741,-0.01985665,0.78000000,0.04000000,-0.00000000
365,0,0.00100000,0.01500000,1.00100000,-0.29000000,-0.28000000,0.09000000,0.09282303,0.06291084,-0.01972918,0.78000000,0.04000000,0.00000000
366,0,-0.00100000,0.01100000,1.00000000,-0.36000000,0.09000000,0.13000000,0.09222544,0.06306024,-0.01951338,0.78000000,0.03000000,0.00000000
367,0,0.00400000,0.01200000,1.00500000,0.00000000,0.22000000,-0.18000000,0.09222544,0.07476143,-0.02908709,0.78000000,0.03000000,0.00000000
368,0,0.00000000,0.01300000,0.99900000,0.12000000,0.04000000,0.16000000,0.09238333,0.07481406,-0.02887658,0.78000000,0.03000000,0.00000000
369,0,-0.00300000,0.01000000,0.99900000,0.11000000,0.16000000,0.08000000,0.09251754,0.07500927,-0.02877897,0.78000000,0.03000000,0.00000000
370,0,0.00400000,0.01000000,1.00000000,-0.02000000,-0.07000000,0.02000000,0.09249296,0.07492326,-0.02875439,0.78000000,0.03000000,0.00000000
371,0,0.00400000,0.01700000,1.00300000,-0.14000000,-0.16000000,-0.03000000,0.09232258,0.07472854,-0.02879090,0.78000000,0.03000000,0.00000000
372,0,0.00300000,0.01300000,1.00000000,-0.16000000,-0.19000000,0.25000000,0.09211837,0.07448604,-0.02847181,0.78000000,0.03000000,0.00000000
373,0,0.00100000,0.01300000,0.99800000,-0.00000000,0.10000000,-0.10000000,0.09211837,0.07989739,-0.03388316,0.78000000,0.04000000,0.00000000
374,0,-0.00300000,0.01400000,1.00200000,0.02000000,-0.03000000,0.13000000,0.09214378,0.07985927,-0.03371798,0.78000000,0.03000000,0.00000000
375,0,-0.00500000,0.01300000,1.00100000,0.37000000,-0.05000000,0.19000000,0.09259380,0.07979845,-0.03348689,0.78000000,0.04000000,0.00000000
376,0,-0.00200000,0.00900000,1.00400000,0.24000000,0.00000000,0.02000000,0.09288988,0.07979845,-0.03346222,0.78000000,0.03000000,0.00000000
377,0,0.00000000,0.01200000,1.00000000,-0.01000000,0.09000000,0.06000000,0.09287753,0.07990966,-0.03338808,0.78000000,0.03000000,0.00000000
378,0,-0.00200000,0.01700000,1.00400000,0.01000000,-0.17000000,0.28000000,0.09289014,0.07969519,-0.03303484,0.78000000,0.03000000,0.00000000
379,0,-0.00000000,0.01200000,0.99900000,-0.06000000,-0.22000000,0.11000000,0.08960384,0.06764540,-0.02700994,0.78000000,0.03000000,0.00000000
380,0,-0.00100000,0.00900000,1.00000000,0.08000000,0.07000000,0.09000000,0.08972552,0.06775187,-0.02687306,0.78000000,0.03000000,0.00000000
381,0,-0.00200000,0.01700000,1.00100000,-0.02000000,-0.18000000,-0.06000000,0.08969598,0.06748608,-0.02696165,0.78000000,0.03000000,0.00000000
382,0,-0.00100000,0.01400000,1.00300000,-0.28000000,0.24000000,0.06000000,0.08929241,0.06783200,-0.02687517,0.78000000,0.03000000,0.01000000
383,0,0.00000000,0.01300000,0.99800000,0.22000000,0.16000000,-0.03000000,0.08959859,0.06805468,-0.02691693,0.78000000,0.03000000,0.00000000
384,0,-0.00200000,0.01100000,0.99900000,0.23000000,-0.04000000,-0.02000000,0.08993021,0.06799700,-0.02694576,0.78000000,0.03000000,0.00000000
385,0,-0.00300000,0.01300000,0.99900000,-0.10000000,-0.09000000,-0.06000000,0.08454573,0.06315097,-0.03017645,0.78000000,0.03000000,0.01000000
386,0,-0.00300000,0.01400000,1.00000000,0.00000000,-0.23000000,0.01000000,0.08454573,0.06282138,-0.03016212,0.78000000,0.03000000,0.01000000
387,0,-0.00100000,0.01800000,0.99500000,-0.15000000,0.02000000,0.12000000,0.08433650,0.06284928,-0.02999474,0.78000000,0.03000000,0.01000000
388,0,0.00400000,0.01400000,0.99900000,-0.01000000,-0.02000000,0.09000000,0.08432285,0.06282198,-0.02987188,0.78000000,0.03000000,0.01000000
389,0,0.00000000,0.01700000,0.99900000,-0.08000000,-0.16000000,-0.27000000,0.08420398,0.06258423,-0.03027308,0.78000000,0.03000000,0.01000000
390,0,0.00400000,0.01900000,0.99700000,0.06000000,0.19000000,-0.10000000,0.08429175,0.06286216,-0.03041936,0.78000000,0.03000000,0.01000000
391,0,0.00100000,0.01500000,0.99700000,-0.03000000,-0.05000000,0.24000000,0.08424928,0.06279138,-0.03007962,0.78000000,0.03000000,0.01000000
392,0,-0.00100000,0.01600000,1.00100000,0.00000000,-0.17000000,-0.21000000,0.08424928,0.05321053,-0.04191479,0.78000000,0.03000000,0.01000000
393,0,0.00300000,0.01400000,1.00000000,-0.17000000,-0.02000000,0.01000000,0.08397957,0.05317880,-0.04189893,0.78000000,0.03000000,0.00000000
394,0,0.00200000,0.01300000,1.00300000,-0.09000000,0.05000000,-0.33000000,0.08385369,0.05324873,-0.04236049,0.78000000,0.03000000,0.00000000
395,0,-0.00300000,0.01200000,1.00200000,-0.06000000,0.06000000,-0.12000000,0.08377230,0.05333012,-0.04252326,0.78000000,0.03000000,0.00000000
396,0,0.00700000,0.01300000,1.00500000,0.03000000,0.24000000,0.09000000,0.08381638,0.05368280,-0.04239101,0.78000000,0.03000000,0.00000000
397,0,0.00200000,0.01100000,0.99700000,0.14000000,-0.21000000,0.18000000,0.08406874,0.05330426,-0.04206655,0.78000000,0.03000000,0.00000000
398,0,0.00200000,0.01600000,1.00200000,0.10000000,0.02000000,-0.10000000,0.08937619,0.05436575,-0.04737400,0.78000000,0.03000000,0.00000000
399,0,-0.00400000,0.01300000,1.00200000,0.04000000,-0.01000000,0.36000000,0.08943351,0.05435142,-0.04685812,0.78000000,0.03000000,0.01000000
400,0,-0.00400000,0.01400000,1.00100000,-0.09000000,-0.08000000,-0.00000000,0.08931308,0.05424437,-0.04685812,0.78000000,0.03000000,0.01000000
401,0,0.00100000,0.01600000,1.00300000,0.11000000,-0.05000000,-0.13000000,0.08945938,0.05417787,-0.04703102,0.78000000,0.03000000,0.01000000
402,0,-0.00100000,0.01100000,1.00100000,-0.07000000,0.06000000,0.09000000,0.08936898,0.05425535,-0.04691480,0.78000000,0.03000000,0.01000000
403,0,0.00400000,0.01400000,1.00100000,-0.12000000,-0.04000000,0.06000000,0.08921095,0.05420268,-0.04683578,0.78000000,0.03000000,0.01000000
404,0,-0.00100000,0.01500000,1.00200000,0.25000000,0.15000000,0.10000000,0.10288035,0.06240432,-0.04136802,0.78000000,0.03000000,0.01000000
405,0,-0.00400000,0.01200000,0.99900000,0.09000000,0.13000000,0.04000000,0.10300643,0.06258642,-0.04131199,0.78000000,0.03000000,0.01000000
406,0,-0.00200000,0.02200000,1.00100000,0.05000000,0.04000000,0.17000000,0.10307283,0.06263955,-0.04108622,0.78000000,0.03000000,0.01000000
407,0,0.00100000,0.01900000,1.00000000,-0.11000000,-0.07000000,0.01000000,0.10292805,0.06254741,-0.04107305,0.78000000,0.03000000,0.01000000
408,0,0.00000000,0.01300000,0.99900000,-0.03000000,0.14000000,-0.13000000,0.10288907,0.06272934,-0.04124199,0.78000000,0.03000000,0.01000000
409,0,-0.00100000,0.01800000,1.00000000,-0.02000000,0.05000000,-0.01000000,0.10286022,0.06280146,-0.04125641,0.78000000,0.03000000,0.00000000
410,0,0.00200000,0.01900000,1.00000000,0.10000000,-0.04000000,-0.08000000,0.10823452,0.06065174,-0.04555585,0.78000000,0.03000000,0.00000000
411,0,-0.00200000,0.01500000,0.99800000,-0.11000000,0.17000000,-0.01000000,0.10808638,0.06088067,-0.04556932,0.78000000,0.03000000,0.00000000
412,0,0.00200000,0.01000000,0.99700000,-0.05000000,0.00000000,0.05000000,0.10802011,0.06088067,-0.04550304,0.78000000,0.03000000,0.00000000
413,0,0.00100000,0.01700000,0.99800000,-0.04000000,0.27000000,-0.12000000,0.10796661,0.06124177,-0.04566353,0.78000000,0.03000000,0.00000000
414,0,-0.00500000,0.01200000,1.00000000,0.15000000,0.12000000,0.12000000,0.10819533,0.06142474,-0.04548055,0.78000000,0.03000000,0.00000000
415,0,0.00100000,0.01400000,1.00200000,-0.07000000,-0.27000000,0.20000000,0.10803811,0.06081832,-0.04503135,0.78000000,0.03000000,0.00000000
416,0,0.00200000,0.01500000,1.00000000,0.08000000,-0.18000000,-0.12000000,0.11226515,0.05130749,-0.05137191,0.78000000,0.03000000,0.00000000
417,0,-0.00700000,0.01300000,0.99900000,-0.30000000,-0.01000000,-0.07000000,0.11185900,0.05129395,-0.05146668,0.78000000,0.03000000,0.00000000
418,0,-0.00100000,0.01500000,0.99800000,-0.10000000,0.28000000,0.05000000,0.11172602,0.05166629,-0.05140019,0.78000000,0.03000000,0.00000000
419,0,-0.00200000,0.01300000,0.99900000,-0.08000000,-0.04000000,-0.01000000,0.11161966,0.05161311,-0.05141348,0.78000000,0.03000000,0.00000000
420,0,0.00400000,0.01700000,0.99700000,0.04000000,0.13000000,0.00000000,0.11167185,0.05178272,-0.05141348,0.78000000,0.03000000,0.00000000
421,0,-0.00500000,0.01200000,1.00000000,0.03000000,0.26000000,0.06000000,0.11171275,0.05213720,-0.05133168,0.78000000,0.03000000,0.00000000
422,0,0.00400000,0.01400000,1.00000000,-0.16000000,-0.06000000,-0.18000000,0.10295255,0.04885212,-0.06118691,0.78000000,0.03000000,0.00000000
423,0,-0.00100000,0.02000000,1.00100000,0.14000000,0.02000000,-0.25000000,0.10314439,0.04887953,-0.06152948,0.78000000,0.03000000,0.00000000
424,0,-0.00400000,0.01200000,1.00400000,0.20000000,0.12000000,-0.07000000,0.10340467,0.04903570,-0.06162058,0.78000000,0.03000000,0.00000000
425,0,0.00100000,0.01700000,0.99900000,0.02000000,0.05000000,-0.05000000,0.10343061,0.04910056,-0.06168545,0.78000000,0.03000000,0.00000000
426,0,0.00200000,0.01100000,1.00200000,0.09000000,0.15000000,-0.03000000,0.10354782,0.04929592,-0.06172452,0.78000000,0.03000000,0.00000000
427,0,0.00400000,0.01600000,1.00000000,0.02000000,-0.00000000,-0.18000000,0.10357583,0.04929592,-0.06197662,0.78000000,0.03000000,-0.00000000
428,0,0.00100000,0.01500000,0.99800000,-0.20000000,0.11000000,-0.15000000,0.09276835,0.05524003,-0.07008223,0.78000000,0.03000000,-0.00000000
429,0,-0.00500000,0.01400000,1.00000000,-0.09000000,-0.04000000,0.25000000,0.09262251,0.05517522,-0.06967714,0.78000000,0.03000000,-0.00000000
430,0,0.00300000,0.01700000,0.99700000,-0.24000000,0.00000000,-0.02000000,0.09229049,0.05517522,-0.06970480,0.78000000,0.03000000,0.00000000
431,0,0.00200000,0.01100000,0.99500000,0.12000000,-0.23000000,0.00000000,0.09245656,0.05485692,-0.06970480,0.78000000,0.03000000,0.00000000
432,0,0.00400000,0.01400000,1.00300000,0.02000000,-0.27000000,-0.17000000,0.09248423,0.05448340,-0.06993998,0.78000000,0.03000000,0.00000000
433,0,0.00300000,0.01800000,1.00000000,-0.06000000,-0.01000000,0.05000000,0.09240111,0.05446955,-0.06987072,0.78000000,0.03000000,0.00000000
434,0,0.00000000,0.01500000,0.99900000,-0.24000000,-0.10000000,0.36000000,0.07934978,0.04903150,-0.05029373,0.78000000,0.03000000,0.00000000
435,0,-0.00600000,0.01400000,0.99800000,0.08000000,0.00000000,0.00000000,0.07946227,0.04903150,-0.05029373,0.78000000,0.03000000,0.00000000
436,0,-0.00300000,0.01200000,0.99700000,-0.01000000,0.03000000,0.14000000,0.07944880,0.04907191,-0.05010513,0.78000000,0.03000000,0.00000000
437,0,-0.00100000,0.01500000,1.00300000,0.24000000,0.28000000,-0.11000000,0.07977773,0.04945566,-0.05025589,0.78000000,0.03000000,0.00000000
438,0,0.00000000,0.01900000,0.99900000,-0.08000000,-0.24000000,-0.23000000,0.07966763,0.04912536,-0.05057242,0.78000000,0.03000000,0.00000000
439,0,-0.00000000,0.01300000,1.00300000,0.09000000,0.10000000,-0.11000000,0.07985706,0.04933585,-0.05080396,0.78000000,0.03000000,0.00000000
440,0,0.00200000,0.01500000,1.00500000,0.14000000,-0.03000000,0.15000000,0.08724139,0.04775349,-0.04289218,0.78000000,0.03000000,0.00000000
441,0,-0.00200000,0.01200000,1.00200000,-0.12000000,-0.10000000,-0.07000000,0.08708608,0.04762407,-0.04298277,0.78000000,0.03000000,0.00000000
442,0,-0.00500000,0.01600000,1.00300000,0.12000000,-0.23000000,-0.07000000,0.08727132,0.04726903,-0.04309083,0.78000000,0.03000000,0.00000000
443,0,0.00000000,0.01000000,1.00300000,0.10000000,-0.07000000,-0.12000000,0.08739874,0.04717984,-0.04324373,0.78000000,0.03000000,0.00000000
444,0,0.00000000,0.01200000,0.99900000,-0.04000000,-0.05000000,-0.17000000,0.08734932,0.04711806,-0.04345378,0.78000000,0.03000000,0.00000000
445,0,-0.00300000,0.01000000,1.00200000,0.13000000,0.19000000,-0.04000000,0.08751199,0.04735581,-0.04350384,0.78000000,0.03000000,0.00000000
446,0,0.00200000,0.01900000,1.00100000,-0.10000000,0.02000000,0.28000000,0.08210140,0.04843793,-0.02835420,0.78000000,0.03000000,0.00000000
447,0,0.00200000,0.01500000,1.00000000,-0.13000000,0.13000000,-0.10000000,0.08190250,0.04863683,-0.02850720,0.78000000,0.03000000,0.00000000
448,0,0.00100000,0.01500000,1.00000000,0.05000000,-0.05000000,0.05000000,0.08197301,0.04856632,-0.02843668,0.78000000,0.03000000,0.00000000
449,0,-0.00100000,0.01100000,1.00000000,0.01000000,0.09000000,-0.17000000,0.08198690,0.04869129,-0.02867275,0.78000000,0.03000000,0.00000000
450,0,-0.00200000,0.01600000,0.99900000,-0.12000000,-0.23000000,-0.02000000,0.08182330,0.04837772,-0.02870002,0.78000000,0.03000000,0.00000000
451,0,-0.00200000,0.02000000,0.99600000,-0.12000000,-0.04000000,-0.07000000,0.08165546,0.04832177,-0.02879793,0.78000000,0.03000000,0.00000000
452,0,-0.00400000,0.01400000,1.00000000,-0.25000000,-0.15000000,-0.03000000,0.06803452,0.04014921,-0.03043244,0.78000000,0.03000000,0.00000000
453,0,-0.00000000,0.01000000,1.00200000,-0.07000000,0.14000000,-0.23000000,0.06793028,0.04035767,-0.03077492,0.78000000,0.03000000,0.00000000
454,0,-0.00100000,0.01200000,0.99700000,-0.24000000,0.11000000,-0.05000000,0.06752777,0.04054216,-0.03085877,0.78000000,0.03000000,0.00000000
455,0,0.00300000,0.01100000,1.00100000,0.03000000,0.12000000,0.03000000,0.06757147,0.04071695,-0.03081507,0.78000000,0.03000000,0.00000000
456,0,0.00100000,0.01100000,1.00100000,-0.16000000,0.02000000,0.02000000,0.06735073,0.04074454,-0.03078748,0.78000000,0.03000000,0.00000000
457,0,0.00200000,0.00600000,1.00100000,0.03000000,0.04000000,-0.10000000,0.06739370,0.04080183,-0.03093071,0.78000000,0.03000000,-0.00000000
458,0,-0.00200000,0.01300000,0.99900000,-0.04000000,-0.04000000,0.01000000,0.06527562,0.03868375,-0.03040119,0.78000000,0.03000000,-0.00000000
459,0,-0.00100000,0.01300000,1.00000000,-0.12000000,-0.01000000,0.07000000,0.06511419,0.03867029,-0.03030702,0.78000000,0.03000000,-0.00000000
460,0,0.00100000,0.01600000,1.00000000,-0.12000000,-0.06000000,-0.18000000,0.06495808,0.03859224,-0.03054119,0.78000000,0.03000000,-0.00000000
461,0,0.00000000,0.01600000,1.00300000,0.01000000,-0.08000000,0.08000000,0.06497144,0.03848536,-0.03043431,0.78000000,0.03000000,-0.00000000
462,0,0.00100000,0.01500000,1.00100000,-0.18000000,0.24000000,-0.12000000,0.06473555,0.03879987,-0.03059156,0.78000000,0.04000000,-0.00000000
463,0,0.00200000,0.01400000,0.99800000,0.30000000,0.21000000,-0.13000000,0.06515816,0.03909569,-0.03077469,0.78000000,0.04000000,-0.00000000
464,0,0.00200000,0.01200000,1.00300000,0.19000000,-0.07000000,0.03000000,0.07539755,0.03532329,-0.02915795,0.78000000,0.04000000,0.00000000
465,0,0.00000000,0.01300000,0.99900000,-0.26000000,-0.06000000,0.02000000,0.07504728,0.03524246,-0.02913100,0.78000000,0.04000000,0.00000000
466,0,0.00300000,0.01200000,0.99700000,0.21000000,-0.00000000,0.13000000,0.07531932,0.03524246,-0.02896260,0.78000000,0.04000000,0.00000000
467,0,-0.00600000,0.01300000,1.00000000,0.01000000,-0.28000000,0.21000000,0.07533246,0.03487459,-0.02868670,0.78000000,0.04000000,0.00000000
468,0,-0.00200000,0.01500000,0.99900000,-0.09000000,-0.09000000,0.19000000,0.07521512,0.03475726,-0.02843898,0.78000000,0.04000000,0.00000000
469,0,-0.00300000,0.01500000,1.00200000,-0.05000000,-0.04000000,-0.01000000,0.07514749,0.03470315,-0.02845251,0.78000000,0.04000000,0.00000000
470,0,0.00400000,0.01500000,1.00100000,-0.06000000,0.06000000,-0.23000000,0.07185436,0.03799628,-0.04107617,0.78000000,0.04000000,0.00000000
471,0,-0.00200000,0.01800000,1.00000000,0.10000000,0.08000000,0.15000000,0.07199072,0.03810537,-0.04087163,0.78000000,0.04000000,0.00000000
472,0,-0.00400000,0.01200000,0.99800000,0.15000000,-0.06000000,0.19000000,0.07218969,0.03802578,-0.04061961,0.78000000,0.04000000,0.00000000
473,0,-0.00200000,0.01100000,1.00200000,-0.10000000,0.30000000,-0.12000000,0.07206100,0.03841184,-0.04077403,0.78000000,0.04000000,0.00000000
474,0,0.00100000,0.01300000,1.00100000,-0.17000000,0.01000000,-0.06000000,0.07184418,0.03842459,-0.04085055,0.78000000,0.04000000,0.00000000
475,0,0.00300000,0.01400000,1.00000000,-0.01000000,0.35000000,-0.13000000,0.07183125,0.03887732,-0.04101871,0.78000000,0.04000000,0.00000000
476,0,0.00200000,0.01200000,0.99900000,-0.13000000,0.02000000,-0.11000000,0.06480827,0.03995778,-0.04696123,0.78000000,0.04000000,0.00000000
477,0,-0.00300000,0.01100000,1.00200000,-0.10000000,-0.10000000,-0.09000000,0.06466671,0.03981622,-0.04708863,0.78000000,0.04000000,0.00000000
478,0,-0.00100000,0.01200000,0.99700000,-0.09000000,-0.22000000,-0.23000000,0.06454251,0.03951261,-0.04740605,0.78000000,0.04000000,0.00000000
479,0,-0.00200000,0.01200000,1.00100000,-0.03000000,0.14000000,-0.02000000,0.06450113,0.03970568,-0.04743363,0.78000000,0.04000000,-0.00000000
480,0,0.00100000,0.01200000,1.00300000,-0.14000000,0.04000000,0.11000000,0.06430999,0.03976029,-0.04728345,0.78000000,0.04000000,0.00000000
481,0,0.00100000,0.01300000,1.00200000,-0.06000000,-0.13000000,-0.03000000,0.06422497,0.03957608,-0.04732596,0.78000000,0.04000000,0.00000000
482,0,0.00500000,0.01800000,1.00200000,0.02000000,0.03000000,0.08000000,0.06529909,0.04118726,-0.04302948,0.78000000,0.04000000,0.00000000
483,0,-0.00200000,0.00900000,0.99600000,-0.07000000,0.18000000,0.06000000,0.06519700,0.04144979,-0.04294197,0.78000000,0.04000000,0.00000000
484,0,-0.00700000,0.01400000,0.99900000,0.01000000,-0.03000000,-0.01000000,0.06521090,0.04140808,-0.04295587,0.78000000,0.04000000,0.00000000
485,0,-0.00200000,0.01200000,0.99600000,0.15000000,-0.03000000,-0.27000000,0.06542192,0.04136587,-0.04333570,0.78000000,0.04000000,0.00000000
486,0,-0.00000000,0.01400000,0.99900000,0.07000000,-0.05000000,-0.02000000,0.06551725,0.04129778,-0.04336294,0.78000000,0.04000000,0.00000000
487,0,-0.00300000,0.01500000,0.99800000,-0.01000000,-0.06000000,0.21000000,0.06549817,0.04118326,-0.04296213,0.78000000,0.04000000,0.00000000
488,0,-0.00800000,0.01500000,1.00400000,0.12000000,0.15000000,0.22000000,0.07197282,0.04927657,-0.03109193,0.78000000,0.04000000,0.00000000
489,0,0.00100000,0.01400000,0.99600000,-0.08000000,-0.07000000,0.03000000,0.07186501,0.04918224,-0.03105150,0.78000000,0.04000000,0.00000000
490,0,-0.00000000,0.01500000,0.99500000,0.18000000,0.14000000,-0.14000000,0.07208921,0.04935662,-0.03122589,0.78000000,0.04000000,0.00000000
491,0,0.00200000,0.01000000,0.99400000,-0.19000000,-0.09000000,0.06000000,0.07185377,0.04924510,-0.03115154,0.78000000,0.04000000,0.00000000
492,0,-0.00200000,0.01700000,1.00100000,0.05000000,0.34000000,0.02000000,0.07191555,0.04966520,-0.03112683,0.78000000,0.04000000,0.00000000
493,0,0.00300000,0.01300000,0.99900000,0.08000000,-0.10000000,-0.08000000,0.07201667,0.04953880,-0.03122794,0.78000000,0.04000000,0.00000000
494,0,0.00000000,0.01300000,1.00000000,-0.16000000,0.22000000,0.01000000,0.06335630,0.06144681,-0.03068667,0.78000000,0.04000000,0.00000000
495,0,0.00400000,0.01700000,0.99900000,0.26000000,-0.08000000,-0.16000000,0.06369038,0.06134401,-0.03089226,0.78000000,0.04000000,0.00000000
496,0,-0.00100000,0.01400000,0.99800000,0.18000000,0.09000000,-0.18000000,0.06391579,0.06145672,-0.03111767,0.78000000,0.04000000,0.00000000
497,0,-0.00500000,0.01500000,0.99800000,-0.08000000,-0.18000000,0.07000000,0.06380529,0.06120809,-0.03102098,0.78000000,0.04000000,0.01000000
498,0,-0.00300000,0.01300000,0.99600000,-0.08000000,-0.23000000,0.04000000,0.06370467,0.06091881,-0.03097067,0.78000000,0.04000000,0.00000000
499,0,-0.00100000,0.01500000,0.99700000,-0.07000000,-0.00000000,0.18000000,0.06361160,0.06091881,-0.03073136,0.78000000,0.04000000,0.01000000
500,0,-0.00400000,0.01200000,0.99600000,-0.18000000,0.02000000,-0.04000000,0.05385942,0.06200238,-0.03289851,0.78000000,0.04000000,0.01000000
501,0,0.00200000,0.01900000,1.00300000,-0.01000000,0.04000000,-0.07000000,0.05384510,0.06205967,-0.03299875,0.78000000,0.04000000,0.01000000
502,0,-0.00200000,0.01200000,0.99800000,0.16000000,0.07000000,0.30000000,0.05406465,0.06215572,-0.03258709,0.78000000,0.04000000,0.01000000
503,0,0.00100000,0.01100000,0.99900000,0.01000000,0.07000000,0.02000000,0.05407826,0.06225097,-0.03255988,0.78000000,0.04000000,0.01000000
504,0,-0.00600000,0.01600000,0.99900000,0.24000000,-0.12000000,0.10000000,0.05440673,0.06208674,-0.03242302,0.78000000,0.04000000,0.01000000
505,0,0.00100000,0.01700000,0.99700000,-0.10000000,-0.18000000,-0.06000000,0.05426498,0.06183159,-0.03250807,0.78000000,0.04000000,0.01000000
506,0,-0.00200000,0.01500000,0.99900000,0.06000000,0.22000000,0.01000000,0.05753648,0.07382709,-0.03196282,0.78000000,0.04000000,0.01000000
507,0,-0.00100000,0.01400000,0.99800000,0.10000000,-0.16000000,-0.04000000,0.05766886,0.07361528,-0.03201577,0.78000000,0.04000000,0.01000000
508,0,0.00000000,0.01800000,0.99700000,-0.14000000,0.28000000,0.24000000,0.05749474,0.07396351,-0.03171728,0.78000000,0.04000000,0.01000000
509,0,0.00100000,0.01500000,1.00400000,0.23000000,-0.02000000,-0.26000000,0.05777832,0.07393885,-0.03203785,0.78000000,0.04000000,0.01000000
510,0,0.00200000,0.01200000,0.99600000,-0.13000000,0.13000000,-0.24000000,0.05761797,0.07409920,-0.03233388,0.78000000,0.04000000,0.01000000
511,0,-0.00100000,0.01900000,1.00000000,0.12000000,0.15000000,0.01000000,0.05776842,0.07428726,-0.03232134,0.79000000,0.04000000,0.01000000
512,0,-0.00300000,0.01700000,1.00000000,-0.05000000,-0.13000000,-0.07000000,0.05490583,0.06684452,-0.03632897,0.79000000,0.04000000,0.01000000
513,0,-0.00000000,0.01600000,1.00000000,-0.07000000,0.15000000,0.03000000,0.05481268,0.06704413,-0.03628905,0.79000000,0.04000000,0.01000000
514,0,0.00200000,0.01400000,1.00300000,-0.12000000,-0.02000000,-0.00000000,0.05465989,0.06701867,-0.03628905,0.79000000,0.04000000,0.01000000
515,0,0.00300000,0.01300000,1.00100000,0.04000000,0.24000000,-0.18000000,0.05471081,0.06732419,-0.03651819,0.79000000,0.04000000,0.01000000
516,0,0.00100000,0.01400000,1.00200000,0.15000000,0.04000000,0.01000000,0.05489583,0.06737353,-0.03650585,0.79000000,0.03000000,0.01000000
517,0,0.00200000,0.01400000,0.99300000,-0.02000000,-0.02000000,0.09000000,0.05487095,0.06734865,-0.03639390,0.79000000,0.03000000,0.01000000
518,0,-0.00200000,0.01200000,1.00200000,-0.01000000,-0.21000000,0.10000000,0.05485805,0.06707781,-0.03626493,0.79000000,0.03000000,0.01000000
519,0,-0.00200000,0.01400000,0.99800000,-0.13000000,0.21000000,-0.09000000,0.04780808,0.07846623,-0.04114568,0.79000000,0.03000000,0.00000000
520,0,-0.00200000,0.01100000,1.00100000,-0.01000000,0.32000000,0.15000000,0.04779401,0.07891632,-0.04093470,0.79000000,0.04000000,0.00000000
521,0,-0.00400000,0.01500000,1.00200000,0.02000000,-0.23000000,-0.15000000,0.04782012,0.07861612,-0.04113048,0.79000000,0.04000000,0.00000000
522,0,-0.00400000,0.01200000,1.00300000,-0.23000000,0.04000000,0.12000000,0.04752261,0.07866786,-0.04097526,0.79000000,0.04000000,0.00000000
523,0,0.00600000,0.01300000,0.99800000,0.28000000,-0.39000000,-0.05000000,0.04788660,0.07816088,-0.04104026,0.79000000,0.03000000,0.00000000
524,0,0.00100000,0.01400000,1.00100000,-0.26000000,-0.02000000,0.09000000,0.04754960,0.07813495,-0.04092360,0.79000000,0.03000000,0.00000000
525,0,-0.00100000,0.01500000,1.00000000,0.05000000,0.04000000,-0.10000000,0.05029496,0.08033124,-0.04641432,0.79000000,0.03000000,0.00000000
526,0,-0.00200000,0.01100000,1.00100000,-0.09000000,0.01000000,-0.05000000,0.05017526,0.08034454,-0.04648082,0.79000000,0.03000000,0.00000000
527,0,0.00100000,0.00900000,1.00100000,-0.13000000,0.06000000,0.18000000,0.05000846,0.08042152,-0.04624988,0.79000000,0.03000000,0.00000000
528,0,-0.00500000,0.01400000,0.99900000,0.09000000,-0.22000000,0.12000000,0.05012567,0.08013501,-0.04609359,0.79000000,0.03000000,0.01000000
529,0,0.00000000,0.01200000,1.00500000,0.10000000,0.00000000,0.21000000,0.05025512,0.08013501,-0.04582175,0.79000000,0.04000000,0.01000000
530,0,-0.00500000,0.01600000,1.00100000,-0.13000000,0.09000000,-0.20000000,0.05008458,0.08025308,-0.04608413,0.79000000,0.03000000,0.01000000
531,0,-0.00100000,0.01500000,0.99900000,0.12000000,0.06000000,0.07000000,0.05657038,0.08349598,-0.04230074,0.79000000,0.03000000,0.01000000
532,0,-0.00300000,0.01600000,1.00100000,-0.08000000,-0.10000000,0.08000000,0.05645380,0.08335025,-0.04218416,0.79000000,0.03000000,0.01000000
533,0,-0.00100000,0.01500000,0.99700000,0.12000000,-0.21000000,0.18000000,0.05661460,0.08306885,-0.04194295,0.79000000,0.03000000,0.01000000
534,0,-0.00100000,0.01500000,1.00100000,0.05000000,0.06000000,-0.08000000,0.05668015,0.08314750,-0.04204783,0.79000000,0.03000000,0.01000000
535,0,-0.00200000,0.01700000,0.99800000,0.18000000,-0.04000000,0.21000000,0.05691697,0.08309487,-0.04177153,0.79000000,0.03000000,0.01000000
536,0,-0.00300000,0.01300000,1.00500000,0.33000000,0.00000000,-0.27000000,0.05734328,0.08309487,-0.04212033,0.79000000,0.03000000,0.01000000
537,0,-0.00400000,0.01000000,1.00400000,-0.06000000,-0.22000000,-0.23000000,0.05410433,0.07121870,-0.05453633,0.79000000,0.03000000,0.01000000
538,0,0.00500000,0.02100000,0.99800000,-0.20000000,0.15000000,-0.10000000,0.05381019,0.07143930,-0.05468340,0.79000000,0.03000000,0.01000000
539,0,-0.00200000,0.01300000,1.00200000,0.14000000,-0.13000000,-0.10000000,0.05400307,0.07126020,-0.05482117,0.79000000,0.03000000,0.01000000
540,0,-0.00100000,0.01400000,1.00400000,-0.18000000,0.22000000,-0.18000000,0.05375676,0.07156125,-0.05506748,0.79000000,0.03000000,0.01000000
541,0,-0.00300000,0.01100000,1.00200000,0.16000000,-0.05000000,-0.06000000,0.05397956,0.07149163,-0.05515102,0.79000000,0.03000000,0.01000000
542,0,-0.00400000,0.01300000,1.00300000,0.10000000,0.13000000,0.02000000,0.05414701,0.07170931,-0.05511753,0.79000000,0.04000000,0.01000000
543,0,-0.00400000,0.01100000,0.99800000,-0.24000000,-0.10000000,-0.10000000,0.04115290,0.06629510,-0.06053174,0.79000000,0.04000000,0.00000000
544,0,-0.00600000,0.01600000,0.99800000,0.12000000,0.03000000,-0.06000000,0.04133811,0.06634140,-0.06062435,0.79000000,0.04000000,0.00000000
545,0,-0.00600000,0.01100000,1.00000000,0.02000000,0.15000000,0.05000000,0.04136778,0.06656390,-0.06055018,0.79000000,0.04000000,0.01000000
546,0,-0.00700000,0.01600000,0.99800000,0.10000000,-0.08000000,-0.26000000,0.04151415,0.06644680,-0.06093076,0.79000000,0.04000000,0.00000000
547,0,-0.00000000,0.01400000,1.00400000,-0.04000000,0.20000000,0.17000000,0.04145297,0.06675271,-0.06067073,0.79000000,0.04000000,0.00000000
548,0,-0.00400000,0.01400000,1.00200000,-0.18000000,0.22000000,0.07000000,0.04115950,0.06711140,-0.06055660,0.79000000,0.04000000,0.01000000
549,0,-0.00100000,0.00900000,1.00200000,-0.07000000,-0.08000000,0.08000000,0.03746109,0.06288465,-0.05632985,0.79000000,0.04000000,0.01000000
550,0,0.00200000,0.01600000,0.99800000,0.09000000,-0.10000000,-0.04000000,0.03758785,0.06274381,-0.05638619,0.79000000,0.04000000,0.01000000
551,0,-0.00000000,0.01300000,1.00200000,0.16000000,0.38000000,-0.29000000,0.03778993,0.06322375,-0.05675246,0.79000000,0.04000000,0.00000000
552,0,0.00300000,0.01100000,1.00100000,0.17000000,0.06000000,0.01000000,0.03799933,0.06329766,-0.05674015,0.79000000,0.04000000,0.00000000
553,0,-0.00200000,0.01300000,1.00200000,0.21000000,-0.10000000,-0.11000000,0.03825625,0.06317531,-0.05687472,0.79000000,0.04000000,0.00000000
554,0,-0.00500000,0.01700000,1.00100000,-0.08000000,-0.01000000,-0.11000000,0.03814747,0.06316172,-0.05702430,0.79000000,0.04000000,0.00000000
555,0,-0.00300000,0.01300000,0.99900000,0.18000000,-0.06000000,0.01000000,0.04790957,0.05990768,-0.05648196,0.79000000,0.04000000,0.00000000
556,0,0.00200000,0.01500000,1.00400000,0.03000000,-0.13000000,0.12000000,0.04794936,0.05973525,-0.05632279,0.79000000,0.04000000,0.00000000
557,0,0.00200000,0.01300000,0.99500000,-0.06000000,-0.31000000,0.14000000,0.04787199,0.05933551,-0.05614226,0.79000000,0.03000000,0.00000000
558,0,-0.00100000,0.01600000,1.00200000,-0.07000000,-0.06000000,0.22000000,0.04778402,0.05926010,-0.05586577,0.79000000,0.03000000,0.00000000
559,0,0.00100000,0.00800000,1.00000000,0.04000000,0.21000000,0.03000000,0.04783327,0.05951867,-0.05582883,0.79000000,0.03000000,0.00000000
560,0,-0.00300000,0.01700000,0.99700000,-0.06000000,-0.07000000,0.16000000,0.04775962,0.05943275,-0.05563243,0.79000000,0.04000000,0.01000000
561,0,-0.00100000,0.01300000,1.00100000,-0.12000000,-0.11000000,-0.19000000,0.04116701,0.05338952,-0.06607073,0.79000000,0.04000000,0.01000000
562,0,-0.00200000,0.01200000,1.00000000,0.05000000,-0.18000000,-0.12000000,0.04123183,0.05315618,-0.06622630,0.79000000,0.04000000,0.01000000
563,0,0.00500000,0.01600000,1.00100000,0.09000000,0.12000000,0.04000000,0.04134430,0.05330613,-0.06617631,0.79000000,0.03000000,0.00000000
564,0,0.00100000,0.01200000,0.99900000,-0.09000000,0.10000000,0.00000000,0.04123391,0.05342879,-0.06617631,0.79000000,0.03000000,0.00000000
565,0,-0.00200000,0.01700000,0.99800000,-0.20000000,-0.09000000,0.21000000,0.04099027,0.05331915,-0.06592049,0.79000000,0.03000000,0.00000000
566,0,-0.00600000,0.01400000,0.99700000,0.41000000,-0.02000000,0.20000000,0.04149569,0.05329450,-0.06567395,0.79000000,0.03000000,0.01000000
567,0,-0.00700000,0.01600000,1.00000000,-0.18000000,-0.27000000,0.01000000,0.03171149,0.03861819,-0.06513038,0.79000000,0.03000000,0.01000000
568,0,-0.00500000,0.01600000,0.99400000,-0.37000000,-0.27000000,-0.18000000,0.03121912,0.03825890,-0.06536991,0.79000000,0.03000000,0.01000000
569,0,-0.00100000,0.01600000,0.99800000,0.04000000,0.12000000,0.05000000,0.03128959,0.03847031,-0.06528182,0.79000000,0.04000000,0.01000000
570,0,-0.00000000,0.01700000,1.00200000,0.21000000,0.18000000,0.28000000,0.03157130,0.03871177,-0.06490622,0.79000000,0.03000000,0.01000000
571,0,-0.00000000,0.01100000,0.99800000,0.04000000,0.12000000,-0.16000000,0.03162317,0.03886740,-0.06511371,0.79000000,0.04000000,0.00000000
572,0,0.00300000,0.01400000,1.00100000,-0.04000000,-0.06000000,0.24000000,0.03157091,0.03878900,-0.06480012,0.79000000,0.04000000,0.01000000
573,0,-0.00200000,0.01500000,0.99900000,0.11000000,0.15000000,-0.13000000,0.03747204,0.04683600,-0.07177419,0.79000000,0.04000000,0.01000000
574,0,-0.00200000,0.01400000,1.00000000,0.25000000,-0.11000000,0.16000000,0.03780436,0.04668978,-0.07156150,0.79000000,0.04000000,0.01000000
575,0,0.00700000,0.01400000,0.99900000,0.01000000,-0.16000000,-0.22000000,0.03781732,0.04648247,-0.07184655,0.79000000,0.04000000,0.01000000
576,0,-0.00400000,0.01400000,1.00100000,-0.13000000,-0.02000000,0.01000000,0.03764767,0.04645637,-0.07183350,0.79000000,0.04000000,0.01000000
577,0,-0.00300000,0.01400000,1.00100000,-0.03000000,0.01000000,0.06000000,0.03760897,0.04646927,-0.07175610,0.79000000,0.04000000,0.01000000
578,0,0.00300000,0.01000000,0.99900000,0.07000000,-0.07000000,-0.32000000,0.03769970,0.04637854,-0.07217087,0.79000000,0.04000000,0.01000000
579,0,-0.00700000,0.01000000,0.99800000,-0.25000000,0.16000000,0.07000000,0.02396015,0.05517185,-0.06832379,0.79000000,0.04000000,0.01000000
580,0,0.00500000,0.01300000,1.00000000,-0.07000000,0.23000000,-0.06000000,0.02385914,0.05550375,-0.06841038,0.79000000,0.04000000,0.01000000
581,0,-0.00200000,0.01300000,0.99800000,-0.09000000,0.01000000,0.13000000,0.02372906,0.05551820,-0.06822247,0.79000000,0.04000000,0.01000000
582,0,0.00100000,0.01800000,0.99900000,-0.12000000,-0.06000000,-0.11000000,0.02355080,0.05542907,-0.06838587,0.79000000,0.04000000,0.01000000
583,0,-0.00100000,0.00900000,0.99800000,0.03000000,0.22000000,0.12000000,0.02359551,0.05575692,-0.06820705,0.79000000,0.04000000,0.01000000
584,0,-0.00400000,0.01600000,0.99700000,-0.08000000,0.19000000,-0.07000000,0.02348312,0.05602384,-0.06830539,0.79000000,0.04000000,0.01000000
585,0,-0.00200000,0.01400000,1.00100000,-0.03000000,0.04000000,-0.07000000,0.02178297,0.05829070,-0.07227239,0.79000000,0.04000000,0.01000000
586,0,0.00300000,0.01100000,1.00100000,-0.08000000,0.07000000,-0.01000000,0.02168666,0.05837498,-0.07228443,0.79000000,0.04000000,0.01000000
587,0,-0.00400000,0.01300000,1.00200000,0.12000000,-0.06000000,0.18000000,0.02182160,0.05830751,-0.07208202,0.79000000,0.04000000,0.01000000
588,0,-0.00400000,0.01300000,0.99300000,-0.10000000,-0.00000000,0.14000000,0.02137315,0.05830751,-0.07145419,0.79000000,0.04000000,0.01000000
589,0,0.00200000,0.01400000,1.00200000,-0.14000000,-0.11000000,-0.20000000,0.02119520,0.05816768,-0.07170841,0.79000000,0.04000000,0.01000000
590,0,-0.00100000,0.01100000,1.00600000,0.18000000,-0.23000000,0.14000000,0.02141387,0.05788827,-0.07153833,0.79000000,0.04000000,0.01000000
591,0,0.00300000,0.01100000,0.99900000,0.08000000,-0.16000000,0.03000000,0.02525240,0.05021121,-0.07009889,0.79000000,0.04000000,0.01000000
592,0,-0.00400000,0.01300000,0.99500000,0.06000000,-0.09000000,0.28000000,0.02532760,0.05009840,-0.06974792,0.79000000,0.04000000,0.01000000
593,0,-0.00000000,0.01500000,1.00100000,-0.33000000,-0.01000000,0.05000000,0.02496439,0.05008739,-0.06969288,0.79000000,0.04000000,0.01000000
594,0,-0.00200000,0.01500000,0.99900000,0.03000000,0.03000000,-0.18000000,0.02518597,0.05030898,-0.07102238,0.79000000,0.04000000,0.01000000
595,0,-0.00200000,0.01300000,1.00200000,-0.13000000,-0.05000000,-0.08000000,0.02503133,0.05024950,-0.07111754,0.79000000,0.04000000,0.01000000
596,0,-0.00300000,0.01800000,0.99800000,0.20000000,-0.08000000,0.03000000,0.02526705,0.05015521,-0.07108218,0.79000000,0.04000000,0.01000000
597,0,-0.00100000,0.01400000,1.00100000,-0.22000000,-0.09000000,-0.06000000,0.01300483,0.04513885,-0.07442643,0.79000000,0.04000000,0.01000000
598,0,-0.00300000,0.01300000,1.00200000,0.02000000,0.13000000,0.16000000,0.01320508,0.04644047,-0.07282443,0.79000000,0.04000000,0.01000000
599,0,0.00200000,0.01500000,0.99400000,-0.01000000,-0.21000000,-0.26000000,0.01318974,0.04611821,-0.07322341,0.79000000,0.04000000,0.01000000
600,0,-0.00200000,0.01400000,0.99900000,-0.00000000,0.13000000,-0.05000000,0.01318974,0.04630013,-0.07329338,0.79000000,0.04000000,0.01000000
601,0,0.00100000,0.01400000,1.00200000,0.21000000,-0.12000000,-0.06000000,0.01347660,0.04613621,-0.07337534,0.79000000,0.04000000,0.01000000
602,0,-0.00300000,0.01500000,1.00300000,0.25000000,0.10000000,-0.04000000,0.01375039,0.04624573,-0.07341915,0.79000000,0.04000000,0.01000000
603,0,-0.00200000,0.01000000,0.99900000,0.18000000,0.12000000,0.08000000,0.02071724,0.05089030,-0.07032277,0.79000000,0.04000000,0.01000000
604,0,-0.00500000,0.00900000,1.00300000,0.15000000,0.01000000,0.06000000,0.02090022,0.05090249,-0.07024958,0.79000000,0.04000000,0.01000000
605,0,-0.00100000,0.01600000,0.99800000,-0.01000000,0.24000000,0.15000000,0.02088941,0.05116196,-0.07008742,0.79000000,0.04000000,0.01000000
606,0,-0.00200000,0.01200000,1.00300000,-0.10000000,0.23000000,0.02000000,0.02077534,0.05142432,-0.07006460,0.79000000,0.04000000,0.01000000
607,0,0.00300000,0.01700000,0.99900000,-0.05000000,0.07000000,-0.01000000,0.02072051,0.05150108,-0.07007557,0.79000000,0.04000000,0.01000000
608,0,0.00100000,0.01400000,1.00000000,0.01000000,-0.12000000,-0.21000000,0.02073074,0.05137821,-0.07029058,0.79000000,0.04000000,0.01000000
609,0,-0.00300000,0.01100000,1.00200000,-0.02000000,0.21000000,-0.22000000,0.01962892,0.06294732,-0.08241060,0.79000000,0.04000000,0.01000000
610,0,0.00100000,0.01800000,0.99900000,-0.10000000,0.05000000,-0.03000000,0.01952568,0.06299895,-0.08244158,0.79000000,0.04000000,0.01000000
611,0,0.00200000,0.01300000,0.99800000,-0.07000000,0.09000000,-0.25000000,0.01945659,0.06308777,-0.08268830,0.79000000,0.04000000,0.01000000
612,0,-0.00000000,0.01600000,1.00300000,0.14000000,-0.11000000,0.20000000,0.01960317,0.06297260,-0.08247891,0.79000000,0.04000000,0.01000000
613,0,-0.00200000,0.01600000,1.00100000,0.04000000,0.08000000,0.22000000,0.01965089,0.06306803,-0.08221646,0.79000000,0.04000000,0.01000000
614,0,-0.00500000,0.01500000,1.00000000,0.09000000,0.16000000,-0.11000000,0.01974883,0.06324215,-0.08233617,0.79000000,0.04000000,0.01000000
615,0,-0.00500000,0.01400000,1.00100000,-0.01000000,-0.14000000,0.23000000,0.01918871,0.05540047,-0.06945341,0.79000000,0.04000000,0.01000000
616,0,0.00100000,0.01600000,0.99700000,0.05000000,-0.24000000,-0.09000000,0.01924047,0.05515205,-0.06954656,0.79000000,0.04000000,0.01000000
617,0,0.00100000,0.01000000,1.00200000,-0.01000000,-0.04000000,0.02000000,0.01923061,0.05511263,-0.06952685,0.79000000,0.04000000,0.01000000
618,0,0.00000000,0.01300000,1.00000000,-0.02000000,0.07000000,0.28000000,0.01921095,0.05518143,-0.06925165,0.79000000,0.04000000,0.01000000
619,0,-0.00300000,0.01300000,1.00200000,0.07000000,0.05000000,-0.13000000,0.01928091,0.05523140,-0.06938156,0.79000000,0.04000000,0.01000000
620,0,-0.00100000,0.01300000,1.00100000,0.04000000,0.08000000,-0.01000000,0.01932106,0.05531171,-0.06939160,0.79000000,0.04000000,0.01000000
621,0,0.00300000,0.01600000,0.99900000,0.21000000,0.11000000,-0.00000000,0.03097879,0.06141814,-0.06939160,0.79000000,0.04000000,0.01000000
622,0,-0.00000000,0.01500000,0.99900000,-0.01000000,-0.06000000,0.10000000,0.03096840,0.06135576,-0.06928764,0.79000000,0.04000000,0.01000000
623,0,-0.00000000,0.01200000,1.00000000,-0.02000000,-0.02000000,-0.12000000,0.03094859,0.06133595,-0.06940647,0.79000000,0.04000000,0.01000000
624,0,-0.00500000,0.01300000,1.00000000,-0.25000000,0.25000000,0.48000000,0.03070168,0.06158286,-0.06893241,0.79000000,0.04000000,0.01000000
625,0,-0.00600000,0.01400000,0.99800000,0.05000000,-0.03000000,-0.06000000,0.03075189,0.06155274,-0.06899265,0.79000000,0.04000000,0.01000000
626,0,-0.00400000,0.01400000,1.00200000,-0.01000000,-0.06000000,-0.16000000,0.03074194,0.06149305,-0.06915182,0.79000000,0.04000000,0.01000000
627,0,-0.00200000,0.01100000,1.00000000,-0.01000000,-0.23000000,-0.05000000,0.03018447,0.04867116,-0.07193919,0.79000000,0.04000000,0.01000000
628,0,-0.00100000,0.01300000,1.00200000,-0.10000000,-0.08000000,-0.21000000,0.03008058,0.04858805,-0.07215736,0.79000000,0.04000000,0.01000000
629,0,-0.00200000,0.01300000,1.00000000,-0.19000000,0.01000000,-0.06000000,0.02989293,0.04859792,-0.07221661,0.79000000,0.04000000,0.01000000
630,0,0.00000000,0.01200000,0.99800000,-0.01000000,-0.05000000,-0.16000000,0.02988305,0.04854854,-0.07237463,0.79000000,0.04000000,0.01000000
631,0,-0.00400000,0.01300000,1.00300000,0.02000000,0.27000000,0.12000000,0.02990309,0.04881913,-0.07225437,0.79000000,0.04000000,0.01000000
632,0,-0.00200000,0.01300000,1.00000000,-0.16000000,0.09000000,0.13000000,0.02974400,0.04890862,-0.07212511,0.79000000,0.04000000,0.01000000
633,0,-0.00100000,0.01200000,0.99800000,0.01000000,-0.40000000,0.06000000,0.03030723,0.02637945,-0.06874574,0.79000000,0.04000000,0.01000000
634,0,-0.00200000,0.01300000,1.00400000,0.12000000,0.15000000,0.03000000,0.03043136,0.02653460,-0.06871471,0.79000000,0.04000000,0.01000000
635,0,0.00400000,0.01400000,0.99800000,0.12000000,-0.33000000,0.18000000,0.03055059,0.02620672,-0.06853586,0.79000000,0.04000000,0.01000000
636,0,0.00100000,0.01300000,1.00200000,0.31000000,-0.11000000,-0.05000000,0.03086326,0.02609577,-0.06858629,0.79000000,0.04000000,0.01000000
637,0,0.00200000,0.01300000,1.00000000,-0.13000000,-0.08000000,0.07000000,0.03073084,0.02601428,-0.06851499,0.79000000,0.04000000,0.01000000
638,0,-0.00300000,0.01200000,0.99900000,0.07000000,-0.13000000,-0.07000000,0.03080322,0.02587984,-0.06858738,0.79000000,0.04000000,0.01000000
639,0,0.00000000,0.01500000,1.00200000,-0.07000000,-0.06000000,0.09000000,0.03073262,0.02581933,-0.06849660,0.79000000,0.04000000,0.01000000
640,0,-0.00400000,0.01300000,1.00000000,-0.11000000,-0.01000000,0.30000000,0.02430327,0.02523484,-0.05096200,0.79000000,0.04000000,0.01000000
641,0,-0.00000000,0.01000000,0.99600000,-0.26000000,0.11000000,0.24000000,0.02403378,0.02534886,-0.05071324,0.79000000,0.04000000,0.01000000
642,0,0.00200000,0.00800000,1.00100000,0.33000000,-0.01000000,0.06000000,0.02436080,0.02533895,-0.05065378,0.79000000,0.04000000,0.01000000
643,0,-0.00100000,0.01400000,0.99800000,0.12000000,-0.03000000,0.11000000,0.02448103,0.02530889,-0.05054357,0.79000000,0.04000000,0.01000000
644,0,-0.00200000,0.01500000,0.99700000,-0.10000000,0.03000000,-0.21000000,0.02438143,0.02533877,-0.05075273,0.79000000,0.04000000,0.01000000
645,0,0.00000000,0.01400000,1.00300000,0.08000000,0.17000000,0.24000000,0.02446098,0.02550780,-0.05051409,0.79000000,0.04000000,0.01000000
646,0,-0.00600000,0.01100000,1.00100000,0.11000000,-0.34000000,0.03000000,0.03058750,0.00657128,-0.04884322,0.79000000,0.04000000,0.01000000
647,0,0.00200000,0.01200000,1.00000000,-0.04000000,0.03000000,-0.15000000,0.03054643,0.00660209,-0.04899723,0.79000000,0.04000000,0.01000000
648,0,-0.00400000,0.01200000,0.99900000,-0.06000000,0.15000000,-0.05000000,0.03048767,0.00674898,-0.04904620,0.79000000,0.04000000,0.01000000
649,0,-0.00200000,0.01100000,1.00100000,-0.03000000,-0.15000000,0.08000000,0.03045754,0.00659833,-0.04896585,0.79000000,0.04000000,0.01000000
650,0,-0.00200000,0.01300000,1.00100000,0.17000000,0.26000000,-0.03000000,0.03062625,0.00685636,-0.04899562,0.79000000,0.04000000,0.01000000
651,0,-0.00200000,0.01600000,1.00000000,-0.21000000,-0.07000000,-0.10000000,0.03041699,0.00678660,-0.04909527,0.78000000,0.04000000,0.01000000
652,0,-0.00300000,0.02000000,1.00000000,-0.05000000,0.16000000,-0.12000000,0.02759647,0.01581227,-0.05586452,0.78000000,0.04000000,0.01000000
653,0,-0.00300000,0.01100000,1.00200000,0.12000000,-0.09000000,0.21000000,0.02772340,0.01571708,-0.05564240,0.79000000,0.04000000,0.01000000
654,0,0.00100000,0.01000000,0.99900000,-0.08000000,-0.06000000,-0.19000000,0.02764187,0.01565593,-0.05583603,0.79000000,0.04000000,0.01000000
655,0,0.00100000,0.01400000,1.00100000,0.07000000,-0.16000000,0.12000000,0.02771127,0.01549730,-0.05571705,0.79000000,0.04000000,0.01000000
656,0,-0.00100000,0.01500000,0.99700000,0.19000000,-0.03000000,-0.00000000,0.02789879,0.01546769,-0.05571705,0.79000000,0.04000000,0.01000000
657,0,-0.00100000,0.01300000,0.99900000,-0.15000000,-0.08000000,0.05000000,0.02775079,0.01538876,-0.05566772,0.79000000,0.04000000,0.01000000
658,0,-0.00300000,0.01300000,1.00300000,0.15000000,-0.06000000,0.12000000,0.03608260,0.01205603,-0.04900227,0.79000000,0.04000000,0.01000000
659,0,0.00100000,0.01400000,0.99800000,0.20000000,0.22000000,0.04000000,0.03628871,0.01228275,-0.04896104,0.79000000,0.04000000,0.01000000
660,0,-0.00100000,0.01500000,1.00100000,0.01000000,-0.13000000,-0.21000000,0.03629884,0.01215107,-0.04917375,0.79000000,0.04000000,0.01000000
661,0,0.00200000,0.00800000,0.99700000,-0.03000000,0.11000000,-0.24000000,0.03626907,0.01226024,-0.04941193,0.79000000,0.04000000,0.01000000
662,0,0.00000000,0.01600000,0.99600000,0.14000000,0.12000000,0.20000000,0.03640697,0.01237844,-0.04921493,0.79000000,0.04000000,0.01000000
663,0,-0.00000000,0.01600000,0.99400000,-0.04000000,0.14000000,0.04000000,0.03636723,0.01251751,-0.04917519,0.79000000,0.04000000,0.01000000
664,0,0.00200000,0.01900000,1.00200000,-0.15000000,-0.03000000,0.03000000,0.02801940,0.01084794,-0.04750563,0.79000000,0.04000000,0.01000000
665,0,0.00000000,0.01800000,1.00300000,-0.04000000,-0.08000000,0.16000000,0.02797745,0.01076405,-0.04733784,0.79000000,0.04000000,0.01000000
666,0,0.00200000,0.01200000,0.99900000,-0.08000000,-0.05000000,-0.27000000,0.02789663,0.01071353,-0.04761062,0.79000000,0.04000000,0.01000000
667,0,0.00100000,0.01500000,0.99700000,-0.03000000,-0.06000000,-0.15000000,0.02786677,0.01065382,-0.04775991,0.78000000,0.04000000,0.00000000
668,0,0.00000000,0.02000000,0.99700000,-0.17000000,0.03000000,-0.06000000,0.02769729,0.01068372,-0.04781972,0.78000000,0.04000000,0.00000000
669,0,-0.00100000,0.01500000,1.00000000,0.10000000,-0.01000000,0.10000000,0.02780249,0.01067320,-0.04771452,0.79000000,0.04000000,0.00000000
670,0,0.00200000,0.01600000,1.00100000,0.21000000,0.00000000,-0.04000000,0.03963121,0.01067320,-0.04996761,0.79000000,0.04000000,0.00000000
671,0,-0.00200000,0.01300000,1.00000000,0.40000000,0.06000000,-0.08000000,0.04005153,0.01073625,-0.05005167,0.79000000,0.04000000,0.00000000
672,0,-0.00000000,0.01500000,1.00000000,0.09000000,-0.06000000,-0.06000000,0.04014132,0.01067639,-0.05011153,0.79000000,0.04000000,0.00000000
673,0,0.00700000,0.01400000,0.99900000,-0.04000000,0.14000000,-0.15000000,0.04010184,0.01081456,-0.05025957,0.79000000,0.04000000,0.00000000
674,0,-0.00000000,0.01400000,0.99800000,-0.28000000,-0.17000000,-0.08000000,0.03982497,0.01064646,-0.05033868,0.78000000,0.04000000,0.00000000
675,0,-0.00200000,0.01500000,1.00100000,0.00000000,-0.18000000,0.00000000,0.03982497,0.01046852,-0.05033868,0.78000000,0.04000000,0.00000000
676,0,0.00400000,0.02000000,0.99900000,-0.35000000,0.06000000,-0.11000000,0.02038682,0.01380077,-0.05644781,0.78000000,0.04000000,0.00000000
677,0,-0.00500000,0.01600000,0.99800000,-0.11000000,0.04000000,-0.12000000,0.02027134,0.01384277,-0.05657379,0.78000000,0.04000000,0.00000000
678,0,-0.00200000,0.01500000,1.00000000,0.23000000,0.24000000,-0.21000000,0.02049981,0.01408117,-0.05678240,0.78000000,0.04000000,0.00000000
679,0,-0.00400000,0.02200000,1.00500000,0.02000000,-0.05000000,-0.22000000,0.02052029,0.01402998,-0.05700765,0.78000000,0.04000000,0.00000000
680,0,-0.00100000,0.01100000,0.99800000,0.10000000,-0.09000000,-0.18000000,0.02061986,0.01394036,-0.05718688,0.78000000,0.04000000,0.00000000
681,0,-0.00300000,0.01100000,0.99900000,0.12000000,0.04000000,-0.04000000,0.02073884,0.01398002,-0.05722654,0.79000000,0.04000000,0.00000000
682,0,-0.00300000,0.01100000,0.99600000,-0.17000000,0.04000000,0.27000000,0.01125891,0.01621059,-0.04217018,0.79000000,0.04000000,0.00000000
683,0,-0.00200000,0.01100000,1.00300000,0.05000000,-0.15000000,-0.10000000,0.01131136,0.01605322,-0.04227509,0.79000000,0.04000000,0.00000000
684,0,0.00100000,0.01200000,1.00300000,0.12000000,0.27000000,0.10000000,0.01143051,0.01632130,-0.04217580,0.78000000,0.04000000,0.00000000
685,0,-0.00100000,0.01200000,1.00000000,0.10000000,0.00000000,0.23000000,0.01152887,0.01632130,-0.04194958,0.78000000,0.04000000,0.00000000
686,0,-0.00100000,0.00900000,0.99800000,0.09000000,-0.09000000,-0.18000000,0.01161730,0.01623286,-0.04212645,0.78000000,0.04000000,0.00000000
687,0,0.00100000,0.01300000,1.00100000,-0.01000000,0.00000000,-0.29000000,0.01160729,0.01623286,-0.04241674,0.78000000,0.04000000,-0.00000000
688,0,-0.00000000,0.01200000,0.99900000,0.14000000,-0.21000000,-0.26000000,0.01949120,0.00440700,-0.05705828,0.78000000,0.04000000,-0.00000000
689,0,0.00100000,0.01400000,1.00200000,0.05000000,0.09000000,-0.20000000,0.01954286,0.00449999,-0.05726491,0.79000000,0.04000000,-0.00000000
690,0,0.00000000,0.01400000,1.00300000,-0.08000000,0.26000000,0.20000000,0.01946421,0.00475559,-0.05706829,0.78000000,0.04000000,-0.00000000
691,0,0.00100000,0.01100000,1.00400000,0.11000000,-0.46000000,0.11000000,0.01957204,0.00430468,-0.05696047,0.79000000,0.04000000,-0.00000000
692,0,-0.00100000,0.01400000,1.00000000,0.05000000,-0.16000000,0.09000000,0.01962137,0.00414681,-0.05687167,0.79000000,0.04000000,-0.00000000
693,0,0.00000000,0.01600000,0.99700000,-0.01000000,-0.01000000,-0.17000000,0.01961113,0.00413657,-0.05704576,0.79000000,0.04000000,-0.00000000
694,0,0.00200000,0.01000000,0.99900000,0.17000000,-0.11000000,-0.01000000,0.02905341,-0.00197314,-0.05760119,0.79000000,0.04000000,-0.00000000
695,0,-0.00300000,0.01600000,1.00000000,0.02000000,-0.30000000,0.29000000,0.02907396,-0.00228144,-0.05730316,0.79000000,0.04000000,-0.00000000
696,0,-0.00300000,0.01300000,1.00100000,-0.07000000,-0.05000000,-0.18000000,0.02900508,-0.00233065,-0.05748029,0.79000000,0.04000000,-0.00000000
697,0,0.00800000,0.01500000,0.99900000,0.05000000,0.03000000,-0.16000000,0.02905411,-0.00230123,-0.05763721,0.79000000,0.04000000,-0.00000000
698,0,-0.00400000,0.01200000,0.99800000,-0.04000000,-0.22000000,-0.20000000,0.02901237,-0.00253083,-0.05784594,0.79000000,0.04000000,-0.00000000
699,0,-0.00400000,0.01300000,1.00000000,0.17000000,0.12000000,0.11000000,0.02918877,-0.00240631,-0.05773179,0.79000000,0.04000000,-0.00000000
700,0,-0.00600000,0.01600000,1.00200000,-0.21000000,0.16000000,-0.08000000,0.01747887,0.00651552,-0.06219271,0.79000000,0.04000000,-0.00000000
701,0,-0.00400000,0.01500000,0.99900000,0.25000000,-0.08000000,-0.14000000,0.01773782,0.00643266,-0.06233772,0.79000000,0.04000000,-0.00000000
702,0,0.00100000,0.01400000,0.99700000,-0.20000000,-0.07000000,-0.03000000,0.01754110,0.00636381,-0.06236723,0.79000000,0.04000000,-0.00000000
703,0,-0.00100000,0.01900000,1.00400000,-0.18000000,-0.15000000,-0.06000000,0.01736436,0.00621652,-0.06242614,0.79000000,0.04000000,-0.00000000
704,0,0.00100000,0.01200000,1.00100000,-0.04000000,0.22000000,-0.13000000,0.01732474,0.00643443,-0.06255491,0.79000000,0.04000000,-0.01000000
705,0,0.00300000,0.01700000,1.00200000,0.14000000,-0.02000000,-0.20000000,0.01746478,0.00641443,-0.06275496,0.79000000,0.04000000,-0.01000000
706,0,-0.00200000,0.01200000,1.00400000,-0.06000000,-0.10000000,0.05000000,0.01408655,0.00078404,-0.05993977,0.79000000,0.04000000,-0.01000000
707,0,-0.00000000,0.01100000,0.99900000,-0.03000000,-0.18000000,-0.10000000,0.01405470,0.00059296,-0.06004592,0.79000000,0.04000000,-0.01000000
708,0,-0.00200000,0.01300000,0.99800000,0.06000000,0.40000000,0.10000000,0.01411468,0.00099279,-0.05994597,0.79000000,0.04000000,-0.01000000
709,0,-0.00300000,0.01500000,0.99800000,0.15000000,0.00000000,0.07000000,0.01426400,0.00099279,-0.05987628,0.79000000,0.04000000,-0.01000000
710,0,-0.00100000,0.01800000,1.00300000,-0.27000000,0.05000000,0.18000000,0.01399502,0.00104260,-0.05969696,0.79000000,0.04000000,-0.01000000
711,0,0.00000000,0.01400000,1.00100000,-0.09000000,0.21000000,-0.06000000,0.01390583,0.00125070,-0.05975642,0.79000000,0.04000000,-0.01000000
712,0,0.00400000,0.01300000,1.00400000,0.01000000,0.05000000,0.22000000,0.01446125,0.00402777,-0.04753732,0.79000000,0.04000000,-0.00000000
713,0,-0.00400000,0.01400000,1.00300000,0.05000000,0.08000000,0.13000000,0.01451386,0.00411195,-0.04740053,0.79000000,0.04000000,-0.00000000
714,0,-0.00100000,0.01300000,0.99900000,-0.11000000,-0.18000000,-0.02000000,0.01440291,0.00393040,-0.04742070,0.79000000,0.04000000,-0.00000000
715,0,-0.00300000,0.01300000,1.00100000,-0.05000000,-0.33000000,0.08000000,0.01435223,0.00359590,-0.04733961,0.79000000,0.04000000,-0.00000000
716,0,0.00100000,0.00700000,1.00000000,-0.04000000,-0.02000000,-0.12000000,0.01431195,0.00357577,-0.04746044,0.79000000,0.04000000,-0.00000000
717,0,-0.00000000,0.01300000,1.00100000,0.18000000,-0.02000000,-0.14000000,0.01450389,0.00355444,-0.04760972,0.79000000,0.04000000,-0.00000000
718,0,-0.00100000,0.01000000,0.99900000,0.38000000,0.23000000,0.11000000,0.03592454,0.01651957,-0.04140901,0.79000000,0.04000000,-0.00000000
719,0,-0.00500000,0.01500000,0.99900000,0.23000000,0.21000000,-0.29000000,0.03616255,0.01673688,-0.04170911,0.79000000,0.04000000,-0.00000000
720,0,-0.00000000,0.01600000,1.00000000,-0.18000000,0.07000000,-0.02000000,0.03598306,0.01680669,-0.04172906,0.79000000,0.04000000,-0.00000000
721,0,-0.00500000,0.01300000,1.00300000,0.17000000,0.04000000,0.02000000,0.03615375,0.01684685,-0.04170898,0.79000000,0.04000000,-0.00000000
722,0,-0.00100000,0.01000000,1.00000000,0.07000000,-0.07000000,-0.01000000,0.03622292,0.01677768,-0.04171886,0.79000000,0.04000000,-0.00000000
723,0,0.00100000,0.01100000,1.00000000,0.01000000,-0.26000000,0.07000000,0.03623277,0.01652152,-0.04164989,0.79000000,0.04000000,-0.00000000
724,0,0.00300000,0.01300000,0.99700000,0.31000000,-0.07000000,-0.12000000,0.05345008,0.01263374,-0.04831466,0.79000000,0.04000000,-0.00000000
725,0,-0.00300000,0.01600000,0.99800000,0.02000000,-0.11000000,0.09000000,0.05347071,0.01252030,-0.04822184,0.79000000,0.04000000,-0.01000000
726,0,-0.00200000,0.01300000,0.99900000,0.12000000,-0.06000000,-0.05000000,0.05358882,0.01246124,-0.04827106,0.79000000,0.04000000,-0.01000000
727,0,-0.00300000,0.01400000,0.99900000,0.17000000,-0.30000000,0.04000000,0.05377115,0.01213949,-0.04822816,0.79000000,0.04000000,-0.00000000
728,0,0.00200000,0.01200000,1.00400000,-0.09000000,-0.06000000,-0.15000000,0.05367297,0.01207404,-0.04839179,0.79000000,0.04000000,-0.01000000
729,0,-0.00100000,0.01000000,0.99800000,0.01000000,-0.07000000,-0.10000000,0.05368305,0.01200348,-0.04849258,0.79000000,0.04000000,-0.01000000
730,0,0.00100000,0.01100000,0.99900000,0.34000000,-0.07000000,-0.19000000,0.07256631,0.00811575,-0.05904499,0.79000000,0.04000000,-0.01000000
731,0,0.00200000,0.01500000,1.00100000,0.12000000,0.01000000,0.02000000,0.07269887,0.00812680,-0.05902289,0.79000000,0.04000000,-0.01000000
732,0,-0.00100000,0.01300000,0.99800000,-0.12000000,0.18000000,-0.19000000,0.07245253,0.00849632,-0.05941294,0.79000000,0.04000000,-0.01000000
733,0,-0.00300000,0.01800000,0.99900000,-0.04000000,0.00000000,-0.05000000,0.07233022,0.00849632,-0.05956582,0.79000000,0.04000000,-0.01000000
734,0,-0.00400000,0.01600000,0.99900000,-0.25000000,-0.19000000,0.09000000,0.07207360,0.00830129,-0.05947343,0.79000000,0.04000000,-0.01000000
735,0,-0.00200000,0.01300000,1.00000000,-0.09000000,-0.11000000,-0.01000000,0.07197877,0.00818538,-0.05948397,0.79000000,0.04000000,-0.01000000
736,0,-0.00500000,0.01500000,1.00000000,-0.09000000,0.05000000,0.08000000,0.06719170,0.01084486,-0.05522880,0.79000000,0.04000000,-0.01000000
737,0,-0.00000000,0.01100000,1.00100000,-0.04000000,0.09000000,-0.06000000,0.06714636,0.01094688,-0.05529681,0.79000000,0.04000000,-0.01000000
738,0,0.00300000,0.01300000,0.99900000,0.01000000,-0.01000000,0.18000000,0.06715643,0.01093681,-0.05511556,0.79000000,0.03000000,-0.01000000
739,0,-0.00100000,0.01400000,1.00200000,0.03000000,0.27000000,0.01000000,0.06718690,0.01121100,-0.05510541,0.79000000,0.04000000,-0.01000000
740,0,0.00100000,0.01200000,1.00300000,0.07000000,0.15000000,-0.13000000,0.06725737,0.01136201,-0.05523628,0.79000000,0.04000000,-0.00000000
741,0,-0.00500000,0.02000000,0.99600000,-0.00000000,0.10000000,0.06000000,0.06725737,0.01146216,-0.05517619,0.79000000,0.04000000,-0.01000000
742,0,-0.00100000,0.01100000,0.99800000,-0.06000000,-0.09000000,0.04000000,0.06393767,0.00648261,-0.05296306,0.79000000,0.04000000,-0.01000000
743,0,0.00300000,0.01400000,1.00000000,-0.14000000,-0.02000000,-0.00000000,0.06379026,0.00646156,-0.05296306,0.79000000,0.04000000,-0.00000000
744,0,-0.00400000,0.01600000,0.99900000,-0.05000000,-0.05000000,-0.15000000,0.06373973,0.00641103,-0.05311464,0.79000000,0.04000000,-0.01000000
745,0,0.00000000,0.01400000,1.00500000,0.09000000,0.12000000,-0.15000000,0.06382956,0.00653080,-0.05326436,0.79000000,0.04000000,-0.01000000
746,0,-0.00400000,0.01500000,0.99800000,0.16000000,0.30000000,-0.32000000,0.06398903,0.00682981,-0.05358330,0.79000000,0.04000000,-0.01000000
747,0,-0.00100000,0.01000000,0.99900000,0.16000000,-0.02000000,-0.09000000,0.06414873,0.00680985,-0.05367313,0.79000000,0.04000000,-0.01000000
748,0,0.00300000,0.01200000,1.00000000,0.02000000,-0.07000000,0.00000000,0.06525867,0.00292509,-0.05367313,0.79000000,0.04000000,-0.01000000
749,0,0.00200000,0.01600000,1.00000000,-0.08000000,-0.16000000,0.14000000,0.06517471,0.00275719,-0.05352622,0.79000000,0.04000000,-0.01000000
750,0,0.00000000,0.01700000,0.99500000,0.13000000,0.07000000,0.16000000,0.06530599,0.00282788,-0.05336465,0.79000000,0.04000000,-0.00000000
751,0,-0.00400000,0.01200000,0.99900000,-0.01000000,-0.24000000,-0.24000000,0.06529604,0.00258907,-0.05360346,0.79000000,0.04000000,-0.00000000
752,0,0.00400000,0.01500000,1.00300000,-0.06000000,-0.23000000,0.25000000,0.06523654,0.00236098,-0.05335553,0.79000000,0.04000000,-0.01000000
753,0,0.00100000,0.01100000,1.00200000,-0.09000000,0.03000000,0.07000000,0.06514716,0.00239078,-0.05328602,0.79000000,0.04000000,-0.01000000
754,0,0.00300000,0.01800000,0.99700000,-0.04000000,-0.07000000,0.15000000,0.06288704,-0.00156443,-0.04481058,0.79000000,0.04000000,-0.00000000
755,0,-0.00400000,0.01200000,1.00300000,-0.12000000,0.06000000,0.17000000,0.06275926,-0.00150054,-0.04462955,0.79000000,0.04000000,-0.00000000
756,0,0.00000000,0.00900000,1.00000000,-0.09000000,-0.04000000,0.08000000,0.06265698,-0.00154599,-0.04453864,0.79000000,0.04000000,-0.00000000
757,0,-0.00600000,0.00700000,1.00000000,-0.08000000,-0.13000000,0.10000000,0.06257618,-0.00167730,-0.04443763,0.79000000,0.04000000,-0.00000000
758,0,-0.00900000,0.01300000,0.99800000,0.02000000,-0.07000000,-0.01000000,0.06259612,-0.00174710,-0.04444760,0.79000000,0.04000000,-0.00000000
759,0,-0.00300000,0.01100000,1.00400000,0.27000000,-0.11000000,0.24000000,0.06286729,-0.00185757,-0.04420657,0.79000000,0.04000000,-0.00000000
760,0,-0.00000000,0.00800000,0.99900000,-0.07000000,0.31000000,0.11000000,0.05878236,0.01623283,-0.03778739,0.79000000,0.04000000,-0.00000000
761,0,0.00100000,0.00700000,1.00100000,-0.03000000,0.05000000,0.07000000,0.05875127,0.01628463,-0.03771487,0.79000000,0.04000000,-0.00000000
762,0,-0.00600000,0.00800000,1.00700000,0.10000000,0.04000000,0.00000000,0.05885116,0.01632459,-0.03771487,0.79000000,0.04000000,-0.00000000
763,0,-0.00400000,0.01700000,1.00200000,0.19000000,-0.10000000,-0.03000000,0.05904886,0.01622053,-0.03774608,0.79000000,0.04000000,-0.00000000
764,0,-0.00300000,0.01500000,1.00100000,0.09000000,-0.15000000,0.10000000,0.05913891,0.01607045,-0.03764603,0.78000000,0.04000000,-0.00000000
765,0,-0.00200000,0.00800000,1.00200000,-0.15000000,-0.28000000,-0.08000000,0.05899001,0.01579252,-0.03772545,0.78000000,0.04000000,-0.00000000
766,0,-0.00300000,0.01400000,1.00100000,0.20000000,-0.07000000,0.08000000,0.05919012,0.01572248,-0.03764540,0.78000000,0.04000000,-0.00000000
767,0,-0.00300000,0.02000000,1.00000000,-0.21000000,-0.18000000,0.09000000,0.04753949,0.00573623,-0.03265228,0.78000000,0.04000000,-0.00000000
768,0,0.00300000,0.01700000,0.99800000,0.01000000,-0.01000000,0.14000000,0.04754997,0.00572576,-0.03250567,0.78000000,0.04000000,-0.00000000
769,0,0.00100000,0.01500000,1.00100000,0.10000000,0.05000000,-0.06000000,0.04764935,0.00577545,-0.03256530,0.79000000,0.04000000,-0.00000000
770,0,0.00300000,0.01300000,1.00000000,0.13000000,0.09000000,-0.08000000,0.04777731,0.00586404,-0.03264404,0.79000000,0.04000000,-0.00000000
771,0,-0.00100000,0.01500000,0.99800000,-0.14000000,-0.05000000,-0.24000000,0.04763951,0.00581482,-0.03288027,0.79000000,0.04000000,-0.00000000
772,0,-0.00000000,0.01100000,0.99700000,-0.05000000,0.05000000,-0.01000000,0.04758943,0.00586490,-0.03289029,0.78000000,0.04000000,-0.00000000
773,0,-0.00000000,0.01300000,0.99600000,-0.12000000,-0.15000000,-0.06000000,0.04080379,-0.00261716,-0.03628311,0.78000000,0.04000000,-0.00000000
774,0,-0.00500000,0.01400000,1.00000000,-0.12000000,0.06000000,0.14000000,0.04068038,-0.00255545,-0.03613913,0.78000000,0.04000000,-0.00000000
775,0,-0.00400000,0.00900000,1.00000000,-0.07000000,-0.11000000,-0.06000000,0.04061151,-0.00266367,-0.03619816,0.78000000,0.04000000,-0.00000000
776,0,-0.00000000,0.01900000,1.00200000,-0.01000000,0.16000000,-0.24000000,0.04060170,-0.00250672,-0.03643359,0.78000000,0.04000000,-0.00000000
777,0,-0.00300000,0.01400000,0.99700000,0.25000000,0.06000000,0.22000000,0.04088175,-0.00243951,-0.03618715,0.78000000,0.04000000,-0.00000000
778,0,-0.00300000,0.01300000,1.00100000,0.09000000,-0.36000000,-0.18000000,0.04097302,-0.00280458,-0.03636969,0.78000000,0.04000000,-0.01000000
779,0,-0.00200000,0.01600000,1.00100000,0.23000000,-0.06000000,-0.02000000,0.05372467,-0.00613110,-0.03747852,0.78000000,0.04000000,-0.01000000
780,0,-0.00100000,0.01500000,1.00400000,0.04000000,0.07000000,-0.32000000,0.05376756,-0.00605604,-0.03782165,0.78000000,0.04000000,-0.01000000
781,0,-0.00400000,0.01500000,0.99800000,-0.03000000,-0.12000000,0.13000000,0.05373756,-0.00617607,-0.03769162,0.78000000,0.04000000,-0.01000000
782,0,-0.00200000,0.01300000,1.00100000,0.01000000,-0.05000000,-0.15000000,0.05374747,-0.00622564,-0.03784030,0.78000000,0.04000000,-0.01000000
783,0,-0.00000000,0.01400000,1.00100000,-0.10000000,0.10000000,-0.02000000,0.05364735,-0.00612551,-0.03786032,0.78000000,0.04000000,-0.01000000
784,0,0.00300000,0.01300000,1.00100000,-0.02000000,0.00000000,0.04000000,0.05362742,-0.00612551,-0.03782046,0.78000000,0.04000000,-0.01000000
785,0,-0.00100000,0.01300000,1.00200000,-0.12000000,0.12000000,0.12000000,0.04696737,0.00053453,-0.03116042,0.78000000,0.04000000,-0.01000000
786,0,-0.00300000,0.01000000,1.00100000,0.03000000,0.06000000,-0.04000000,0.04699877,0.00059734,-0.03120229,0.78000000,0.04000000,-0.01000000
787,0,-0.00500000,0.01500000,1.00200000,0.11000000,-0.06000000,-0.20000000,0.04710875,0.00053735,-0.03140225,0.78000000,0.04000000,-0.01000000
788,0,-0.00000000,0.01300000,1.00100000,-0.24000000,-0.11000000,-0.07000000,0.04687166,0.00042868,-0.03147140,0.78000000,0.04000000,-0.01000000
789,0,-0.00400000,0.01000000,1.00200000,0.10000000,0.15000000,-0.20000000,0.04697202,0.00057923,-0.03167212,0.78000000,0.04000000,-0.01000000
790,0,-0.00800000,0.01200000,1.00100000,-0.33000000,0.38000000,0.24000000,0.04664123,0.00096014,-0.03143154,0.78000000,0.04000000,-0.01000000
791,0,0.00500000,0.01300000,0.99800000,0.16000000,0.18000000,-0.14000000,0.05568242,0.01113148,-0.03934258,0.78000000,0.04000000,-0.01000000
792,0,0.00100000,0.01700000,0.99800000,0.04000000,-0.07000000,0.20000000,0.05572371,0.01105923,-0.03913614,0.78000000,0.04000000,-0.00000000
793,0,-0.00200000,0.01700000,0.99900000,0.00000000,0.22000000,-0.26000000,0.05572371,0.01127798,-0.03939466,0.78000000,0.04000000,-0.01000000
794,0,-0.00600000,0.01900000,1.00100000,0.05000000,0.22000000,0.09000000,0.05577436,0.01150087,-0.03930348,0.78000000,0.04000000,-0.01000000
795,0,0.00100000,0.01500000,1.00000000,-0.09000000,-0.03000000,-0.06000000,0.05568522,0.01147115,-0.03936291,0.78000000,0.04000000,-0.00000000
796,0,-0.00100000,0.02000000,1.00000000,-0.01000000,-0.24000000,0.16000000,0.05567535,0.01123429,-0.03920500,0.78000000,0.04000000,-0.00000000
797,0,-0.00200000,0.01300000,1.00000000,0.01000000,-0.04000000,-0.08000000,0.05623125,0.00901068,-0.04365222,0.78000000,0.04000000,-0.00000000
798,0,-0.00600000,0.01200000,1.00400000,0.12000000,-0.23000000,-0.04000000,0.05635603,0.00877152,-0.04369382,0.78000000,0.04000000,-0.00000000
799,0,0.00400000,0.00700000,0.99900000,-0.06000000,-0.03000000,0.13000000,0.05629602,0.00874151,-0.04356378,0.78000000,0.04000000,-0.00000000
800,0,-0.00100000,0.01200000,0.99800000,-0.21000000,0.13000000,0.03000000,0.05608516,0.00887204,-0.04353366,0.78000000,0.04000000,-0.00000000
801,0,0.00000000,0.01600000,1.00100000,0.04000000,0.33000000,0.05000000,0.05612469,0.00919812,-0.04348425,0.78000000,0.04000000,-0.00000000
802,0,0.00300000,0.01300000,0.99900000,0.04000000,0.02000000,0.09000000,0.05616417,0.00921786,-0.04339541,0.78000000,0.04000000,-0.00000000
803,0,0.00100000,0.01200000,0.99900000,0.13000000,-0.18000000,-0.12000000,0.06340727,-0.00081105,-0.05008135,0.78000000,0.04000000,-0.01000000
804,0,0.00000000,0.01300000,1.00100000,-0.20000000,0.10000000,-0.06000000,0.06318938,-0.00070210,-0.05014671,0.77000000,0.04000000,-0.01000000
805,0,0.00000000,0.01800000,0.99900000,-0.04000000,0.20000000,0.09000000,0.06314954,-0.00050291,-0.05005707,0.77000000,0.04000000,-0.01000000
806,0,0.00300000,0.01100000,1.00200000,0.07000000,-0.06000000,0.19000000,0.06322040,-0.00056364,-0.04986476,0.78000000,0.04000000,-0.00000000
807,0,0.00300000,0.00900000,1.00200000,0.23000000,-0.19000000,0.03000000,0.06347810,-0.00077652,-0.04983114,0.78000000,0.04000000,-0.00000000
808,0,-0.00200000,0.01400000,0.99600000,0.09000000,0.12000000,-0.24000000,0.06356915,-0.00065511,-0.05007396,0.78000000,0.04000000,-0.00000000
809,0,0.00600000,0.01200000,1.00000000,-0.18000000,-0.12000000,0.16000000,0.05347025,-0.00738771,-0.04109716,0.78000000,0.04000000,-0.00000000
810,0,0.00200000,0.01300000,1.00000000,0.10000000,-0.06000000,-0.04000000,0.05357567,-0.00745096,-0.04113932,0.78000000,0.04000000,-0.00000000
811,0,-0.00400000,0.00800000,0.99900000,0.18000000,-0.05000000,-0.08000000,0.05375979,-0.00750211,-0.04122115,0.78000000,0.04000000,-0.00000000
812,0,-0.00000000,0.01700000,1.00000000,-0.12000000,-0.10000000,0.02000000,0.05364033,-0.00760166,-0.04120124,0.78000000,0.04000000,-0.00000000
813,0,0.00200000,0.01400000,1.00300000,0.13000000,-0.10000000,0.11000000,0.05376894,-0.00770059,-0.04109242,0.78000000,0.04000000,-0.00000000
814,0,-0.00500000,0.01300000,0.99800000,0.07000000,0.06000000,-0.04000000,0.05383836,-0.00764109,-0.04113209,0.78000000,0.04000000,-0.00000000
815,0,0.00100000,0.01900000,0.99700000,0.17000000,0.07000000,0.00000000,0.06327273,-0.00375635,-0.04113209,0.78000000,0.05000000,-0.00000000
816,0,0.00300000,0.00900000,1.00400000,-0.04000000,-0.13000000,-0.21000000,0.06323164,-0.00388988,-0.04134780,0.78000000,0.05000000,-0.00000000
817,0,0.00400000,0.01300000,0.99700000,0.28000000,-0.18000000,-0.04000000,0.06351225,-0.00407027,-0.04138789,0.78000000,0.04000000,-0.00000000
818,0,0.00100000,0.01700000,1.00000000,-0.32000000,-0.04000000,0.04000000,0.06319278,-0.00411021,-0.04134796,0.78000000,0.04000000,-0.00000000
819,0,-0.00000000,0.01600000,1.00100000,-0.07000000,-0.05000000,0.10000000,0.06312314,-0.00415995,-0.04124848,0.78000000,0.04000000,-0.00000000
820,0,0.00200000,0.01400000,1.00400000,0.00000000,-0.09000000,0.00000000,0.06312314,-0.00424918,-0.04124848,0.78000000,0.05000000,-0.00000000
821,0,0.00100000,0.01700000,0.99900000,0.01000000,-0.22000000,-0.07000000,0.06367904,-0.01647882,-0.04513973,0.78000000,0.04000000,-0.00000000
822,0,-0.00400000,0.01800000,1.00400000,-0.02000000,-0.01000000,-0.20000000,0.06365799,-0.01648935,-0.04535013,0.78000000,0.05000000,-0.00000000
823,0,0.00300000,0.01100000,1.00500000,0.00000000,-0.21000000,-0.24000000,0.06365799,-0.01670381,-0.04559523,0.78000000,0.04000000,-0.00000000
824,0,0.00100000,0.01200000,0.99800000,0.06000000,-0.19000000,-0.10000000,0.06371800,-0.01689381,-0.04569523,0.78000000,0.04000000,-0.00000000
825,0,0.00300000,0.01500000,0.99800000,0.04000000,-0.31000000,-0.08000000,0.06375769,-0.01720146,-0.04577462,0.78000000,0.04000000,-0.00000000
826,0,0.00500000,0.01500000,0.99800000,0.02000000,-0.03000000,-0.04000000,0.06377756,-0.01723126,-0.04581436,0.78000000,0.04000000,-0.00000000
827,0,0.00100000,0.01300000,1.00200000,-0.19000000,-0.37000000,-0.00000000,0.05304776,-0.03812614,-0.04581436,0.78000000,0.04000000,-0.00000000
828,0,0.00100000,0.01200000,0.99800000,-0.06000000,0.13000000,-0.21000000,0.05298442,-0.03798891,-0.04603603,0.78000000,0.04000000,-0.00000000
829,0,-0.00200000,0.01400000,1.00300000,-0.28000000,0.04000000,0.15000000,0.05270502,-0.03794899,-0.04588635,0.78000000,0.04000000,-0.00000000
830,0,0.00100000,0.01300000,1.00000000,-0.13000000,0.08000000,0.14000000,0.05257625,-0.03786976,-0.04574768,0.78000000,0.04000000,-0.00000000
831,0,-0.00000000,0.01600000,1.00000000,0.19000000,0.03000000,0.06000000,0.05276408,-0.03784010,-0.04568836,0.78000000,0.04000000,-0.00000000
832,0,-0.00600000,0.01600000,1.00000000,0.03000000,-0.05000000,-0.01000000,0.05279388,-0.03788975,-0.04569830,0.78000000,0.04000000,-0.00000000
833,0,0.00000000,0.02100000,1.00000000,0.07000000,0.02000000,0.05000000,0.05668072,-0.03677923,-0.04292198,0.78000000,0.04000000,-0.00000000
834,0,0.00200000,0.01900000,1.00300000,-0.24000000,-0.06000000,0.22000000,0.05642664,-0.03684275,-0.04268907,0.78000000,0.04000000,-0.00000000
835,0,-0.00200000,0.01300000,0.99600000,-0.07000000,0.04000000,-0.09000000,0.05635595,-0.03680235,-0.04277995,0.78000000,0.04000000,-0.00000000
836,0,0.00100000,0.01200000,1.00100000,0.14000000,-0.25000000,0.29000000,0.05651254,-0.03708199,-0.04245558,0.78000000,0.04000000,-0.00000000
837,0,-0.00300000,0.01500000,1.00100000,0.09000000,-0.06000000,0.04000000,0.05660244,-0.03714192,-0.04241562,0.78000000,0.04000000,0.00000000
838,0,-0.00200000,0.01300000,0.99900000,-0.05000000,0.26000000,0.15000000,0.05655250,-0.03688222,-0.04226580,0.78000000,0.04000000,0.00000000
839,0,-0.00300000,0.01600000,1.00200000,0.09000000,0.05000000,-0.04000000,0.06154657,-0.03410774,-0.04448538,0.78000000,0.04000000,-0.00000000
840,0,0.00400000,0.01100000,0.99900000,0.00000000,0.10000000,0.06000000,0.06154657,-0.03400096,-0.04442132,0.78000000,0.04000000,0.00000000
841,0,-0.00100000,0.01500000,0.99600000,-0.23000000,0.06000000,-0.01000000,0.06131568,-0.03394073,-0.04443136,0.78000000,0.04000000,0.00000000
842,0,-0.00500000,0.01000000,1.00000000,0.05000000,-0.20000000,0.21000000,0.06136562,-0.03414050,-0.04422160,0.78000000,0.04000000,0.00000000
843,0,0.00100000,0.01200000,1.00200000,-0.11000000,0.17000000,0.02000000,0.06125599,-0.03397106,-0.04420167,0.78000000,0.04000000,0.00000000
844,0,0.00000000,0.01400000,1.00000000,0.02000000,0.00000000,-0.04000000,0.06127853,-0.03397106,-0.04424675,0.78000000,0.04000000,-0.00000000
845,0,-0.00600000,0.01200000,1.00200000,0.10000000,0.21000000,0.17000000,0.06690562,-0.02215416,-0.03468069,0.78000000,0.04000000,-0.00000000
846,0,-0.00400000,0.01500000,0.99500000,-0.16000000,-0.11000000,-0.17000000,0.06674047,-0.02226771,-0.03485617,0.78000000,0.04000000,-0.00000000
