Measurement Count,IMU_MODE,Accel_X,Accel_Y,Accel_Z,Gyro_X,Gyro_Y,Gyro_Z,X_DEL_ANG,Y_DEL_ANG,Z_DEL_ANG,ROLL,PITCH,HEADING
1,0,0.39300000,0.23400000,0.89300000,0.10000000,-0.11000000,-0.02000000,0.00010124,-0.00011137,-0.00002025,14.61000000,-22.90000000,-0.00000000
2,0,0.38700000,0.23500000,0.88800000,-0.14000000,-0.15000000,0.09000000,-0.00004036,-0.00026309,0.00007078,14.71000000,-23.17000000,-0.04000000
3,0,0.38800000,0.23500000,0.88800000,-0.18000000,-0.09000000,-0.04000000,-0.00021676,-0.00035129,0.00003158,14.74000000,-23.10000000,-0.05000000
4,0,0.39400000,0.23200000,0.89400000,0.17000000,-0.24000000,0.11000000,-0.00005008,-0.00058660,0.00013944,14.73000000,-23.14000000,-0.04000000
5,0,0.39100000,0.23700000,0.89200000,-0.22000000,-0.12000000,-0.12000000,-0.00027591,-0.00070978,0.00001626,14.70000000,-23.08000000,-0.04000000
6,0,0.39400000,0.23400000,0.88800000,0.11000000,0.11000000,-0.05000000,-0.00016205,-0.00059592,-0.00003550,14.70000000,-23.06000000,-0.03000000
7,0,0.39300000,0.23200000,0.89300000,-0.14000000,0.04000000,-0.05000000,-0.00030733,-0.00055442,-0.00008738,14.72000000,-23.04000000,-0.04000000
8,0,0.39100000,0.23100000,0.89000000,-0.07000000,-0.07000000,0.06000000,-0.00037855,-0.00062564,-0.00002634,14.70000000,-23.03000000,-0.03000000
9,0,0.39100000,0.22800000,0.89200000,0.14000000,-0.04000000,-0.12000000,-0.00023684,-0.00066612,-0.00014780,14.68000000,-23.03000000,-0.03000000
10,0,0.38900000,0.23400000,0.88700000,0.17000000,-0.05000000,-0.02000000,-0.00006003,-0.00071813,-0.00016860,14.70000000,-23.04000000,-0.03000000
11,0,0.39100000,0.23800000,0.89000000,0.11000000,-0.01000000,0.11000000,0.00005081,-0.00072821,-0.00005776,14.69000000,-23.05000000,-0.03000000
12,0,0.38900000,0.23300000,0.89000000,0.01000000,0.23000000,-0.05000000,0.00006092,-0.00049579,-0.00010828,14.69000000,-23.05000000,-0.03000000
13,0,0.39400000,0.23200000,0.89100000,0.21000000,-0.07000000,0.07000000,0.00027934,-0.00056859,-0.00003548,14.70000000,-23.04000000,-0.03000000
14,0,0.39600000,0.23600000,0.88900000,-0.06000000,0.18000000,0.04000000,0.00021084,-0.00036309,0.00001019,14.70000000,-23.06000000,-0.03000000
15,0,0.38600000,0.23500000,0.89100000,0.02000000,-0.10000000,0.33000000,0.00023341,-0.00047597,0.00038268,14.71000000,-23.07000000,-0.03000000
16,0,0.39500000,0.23000000,0.88700000,-0.17000000,-0.23000000,-0.01000000,0.00005364,-0.00071919,0.00037211,14.71000000,-23.07000000,-0.03000000
17,0,0.39400000,0.23600000,0.89000000,-0.00000000,0.12000000,-0.10000000,0.00005364,-0.00058014,0.00025623,14.70000000,-23.08000000,-0.03000000
18,0,0.38900000,0.23200000,0.88400000,-0.00000000,-0.03000000,-0.21000000,0.00005364,-0.00061261,0.00002890,14.70000000,-23.08000000,-0.03000000
19,0,0.39300000,0.23400000,0.89000000,0.18000000,-0.11000000,-0.04000000,0.00024227,-0.00072789,-0.00001302,14.70000000,-23.08000000,-0.03000000
20,0,0.39200000,0.23600000,0.89700000,0.05000000,-0.02000000,0.08000000,0.00029653,-0.00074959,0.00007379,14.70000000,-23.07000000,-0.03000000
21,0,0.39500000,0.24000000,0.89100000,-0.00000000,-0.03000000,0.17000000,0.00029653,-0.00077960,0.00024388,14.69000000,-23.07000000,-0.03000000
22,0,0.39000000,0.23100000,0.88800000,-0.07000000,0.23000000,0.27000000,0.00022362,-0.00054006,0.00052509,14.69000000,-23.07000000,-0.03000000
23,0,0.39000000,0.23300000,0.88700000,0.17000000,0.07000000,0.30000000,0.00041235,-0.00046234,0.00085814,14.69000000,-23.07000000,-0.03000000
24,0,0.38900000,0.23300000,0.89200000,-0.00000000,0.11000000,-0.16000000,0.00041235,-0.00034720,0.00069066,14.69000000,-23.06000000,-0.02000000
25,0,0.39100000,0.23000000,0.89300000,-0.15000000,0.22000000,-0.07000000,0.00023116,-0.00008146,0.00060610,14.68000000,-23.06000000,-0.02000000
26,0,0.39100000,0.23500000,0.89100000,0.09000000,-0.09000000,0.23000000,0.00034324,-0.00019354,0.00089254,14.67000000,-23.06000000,-0.02000000
27,0,0.39000000,0.22700000,0.88600000,-0.00000000,-0.12000000,-0.13000000,0.00034324,-0.00033981,0.00073408,14.66000000,-23.05000000,-0.02000000
28,0,0.39200000,0.23500000,0.89100000,0.25000000,-0.07000000,0.06000000,0.00468159,-0.00155454,0.00177528,14.66000000,-23.05000000,-0.01000000
29,0,0.39100000,0.23600000,0.88600000,0.04000000,0.22000000,-0.32000000,0.00473438,-0.00126420,0.00135296,14.67000000,-23.05000000,-0.02000000
30,0,0.39200000,0.23500000,0.89200000,-0.07000000,-0.26000000,-0.04000000,0.00464766,-0.00158632,0.00130341,14.67000000,-23.05000000,-0.02000000
31,0,0.39100000,0.23000000,0.88900000,-0.06000000,0.04000000,-0.13000000,0.00457892,-0.00154049,0.00115447,14.67000000,-23.05000000,-0.02000000
32,0,0.39100000,0.23300000,0.89000000,0.07000000,0.06000000,-0.13000000,0.00465254,-0.00147739,0.00101774,14.67000000,-23.06000000,-0.02000000
33,0,0.39400000,0.23700000,0.88900000,-0.07000000,-0.29000000,-0.25000000,0.00458042,-0.00177618,0.00076016,14.67000000,-23.06000000,-0.02000000
34,0,0.39300000,0.23100000,0.89500000,0.02000000,0.07000000,-0.19000000,0.00460094,-0.00170434,0.00056517,14.67000000,-23.06000000,-0.02000000
35,0,0.39000000,0.23100000,0.89100000,-0.04000000,-0.07000000,0.10000000,0.00241308,-0.00553310,0.00603484,14.67000000,-23.06000000,-0.02000000
36,0,0.38800000,0.23600000,0.89000000,-0.12000000,-0.15000000,0.07000000,0.00228824,-0.00568915,0.00610766,14.67000000,-23.05000000,-0.02000000
37,0,0.39300000,0.23300000,0.89100000,0.14000000,-0.00000000,-0.10000000,0.00244857,-0.00568915,0.00599314,14.67000000,-23.06000000,-0.02000000
38,0,0.39200000,0.23700000,0.88700000,-0.19000000,0.37000000,-0.09000000,0.00223823,-0.00527953,0.00589350,14.67000000,-23.06000000,-0.02000000
39,0,0.39200000,0.23100000,0.89000000,0.02000000,0.20000000,-0.16000000,0.00225857,-0.00507609,0.00573075,14.67000000,-23.06000000,-0.02000000
40,0,0.39400000,0.23000000,0.88900000,-0.09000000,-0.22000000,0.11000000,0.00216681,-0.00530040,0.00584290,14.67000000,-23.06000000,-0.02000000
41,0,0.39300000,0.22900000,0.89000000,-0.10000000,-0.04000000,0.02000000,-0.00344789,-0.00754628,0.00696584,14.67000000,-23.06000000,-0.02000000
42,0,0.39100000,0.23300000,0.89100000,0.08000000,-0.01000000,0.07000000,-0.00336520,-0.00755662,0.00703820,14.67000000,-23.06000000,-0.02000000
43,0,0.39000000,0.23100000,0.88800000,-0.03000000,-0.21000000,-0.12000000,-0.00339482,-0.00776397,0.00691971,14.67000000,-23.06000000,-0.02000000
44,0,0.39600000,0.23400000,0.88900000,-0.01000000,-0.05000000,0.11000000,-0.00340465,-0.00781314,0.00702788,14.67000000,-23.06000000,-0.02000000
45,0,0.39400000,0.23300000,0.88800000,-0.24000000,-0.32000000,-0.00000000,-0.00364678,-0.00813597,0.00702788,14.67000000,-23.07000000,-0.02000000
46,0,0.39300000,0.22800000,0.88700000,-0.12000000,0.08000000,0.04000000,-0.00376750,-0.00805549,0.00706812,14.67000000,-23.07000000,-0.02000000
47,0,0.39000000,0.22500000,0.89200000,0.21000000,0.07000000,0.11000000,0.00789349,-0.00416849,0.01317625,14.67000000,-23.07000000,-0.02000000
48,0,0.39100000,0.23500000,0.89100000,0.32000000,-0.10000000,-0.12000000,0.00822784,-0.00427298,0.01305087,14.67000000,-23.06000000,-0.02000000
49,0,0.39000000,0.23000000,0.88800000,0.27000000,0.07000000,0.14000000,0.00849695,-0.00420321,0.01319041,14.67000000,-23.06000000,-0.02000000
50,0,0.38800000,0.23000000,0.89200000,0.07000000,-0.04000000,-0.01000000,0.00856555,-0.00424241,0.01318061,14.67000000,-23.06000000,-0.02000000
51,0,0.39800000,0.23100000,0.89400000,0.02000000,0.03000000,-0.15000000,0.00858555,-0.00421242,0.01303064,14.67000000,-23.06000000,-0.02000000
52,0,0.39100000,0.23400000,0.89100000,0.15000000,0.17000000,0.23000000,0.00873548,-0.00404249,0.01326054,14.67000000,-23.06000000,-0.02000000
53,0,0.39500000,0.23700000,0.88500000,0.14000000,0.13000000,-0.11000000,0.01652699,0.00319249,0.00713863,14.67000000,-23.06000000,-0.02000000
54,0,0.39200000,0.23600000,0.88800000,0.13000000,0.22000000,-0.05000000,0.01666899,0.00343279,0.00708402,14.67000000,-23.06000000,-0.02000000
55,0,0.39000000,0.23500000,0.89000000,0.12000000,0.27000000,0.24000000,0.01679008,0.00370524,0.00732620,14.68000000,-23.06000000,-0.02000000
56,0,0.39400000,0.23400000,0.89000000,0.19000000,-0.20000000,-0.02000000,0.01697828,0.00350715,0.00730639,14.68000000,-23.06000000,-0.02000000
57,0,0.39100000,0.23300000,0.88800000,0.26000000,-0.05000000,0.04000000,0.01724021,0.00345678,0.00734668,14.68000000,-23.06000000,-0.02000000
58,0,0.38900000,0.23600000,0.88700000,-0.03000000,-0.01000000,-0.06000000,0.01720679,0.00344564,0.00727984,14.68000000,-23.06000000,-0.02000000
59,0,0.39100000,0.23700000,0.88800000,0.07000000,-0.17000000,0.05000000,0.02114323,-0.00611430,0.01009159,14.68000000,-23.06000000,-0.02000000
60,0,0.38800000,0.22700000,0.89100000,-0.09000000,-0.14000000,0.01000000,0.02105096,-0.00625785,0.01010184,14.68000000,-23.06000000,-0.02000000
61,0,0.39400000,0.23600000,0.89000000,-0.13000000,-0.11000000,0.02000000,0.02092293,-0.00636617,0.01012154,14.68000000,-23.06000000,-0.02000000
62,0,0.38900000,0.23400000,0.88800000,0.06000000,0.28000000,0.19000000,0.02098287,-0.00608650,0.01031132,14.68000000,-23.07000000,-0.02000000
63,0,0.39400000,0.23000000,0.88900000,-0.04000000,0.18000000,0.23000000,0.02094323,-0.00590812,0.01053924,14.68000000,-23.07000000,-0.02000000
64,0,0.38900000,0.23500000,0.88900000,-0.01000000,-0.08000000,-0.10000000,0.02093341,-0.00598664,0.01044110,14.68000000,-23.06000000,-0.02000000
65,0,0.38900000,0.23400000,0.89200000,-0.09000000,-0.04000000,0.23000000,0.01593100,-0.00820993,0.02322505,14.68000000,-23.06000000,-0.02000000
66,0,0.38600000,0.23200000,0.88900000,0.32000000,0.01000000,-0.26000000,0.01626024,-0.00819964,0.02295754,14.69000000,-23.06000000,-0.02000000
67,0,0.39000000,0.22800000,0.88900000,0.13000000,-0.25000000,0.16000000,0.01638807,-0.00844548,0.02311487,14.69000000,-23.06000000,-0.02000000
68,0,0.39300000,0.23500000,0.88800000,0.01000000,-0.09000000,-0.07000000,0.01639809,-0.00853567,0.02304472,14.69000000,-23.06000000,-0.02000000
69,0,0.38600000,0.23300000,0.89100000,0.22000000,0.22000000,0.08000000,0.01661600,-0.00831777,0.02312396,14.69000000,-23.06000000,-0.02000000
70,0,0.38800000,0.23300000,0.88900000,0.04000000,0.18000000,-0.15000000,0.01665543,-0.00814034,0.02297610,14.69000000,-23.06000000,-0.02000000
71,0,0.39400000,0.23500000,0.88800000,-0.12000000,-0.10000000,-0.03000000,0.00996200,-0.01371820,0.02130274,14.69000000,-23.06000000,-0.02000000
72,0,0.39100000,0.23100000,0.89000000,-0.22000000,0.22000000,0.02000000,0.00973559,-0.01349179,0.02132333,14.69000000,-23.06000000,-0.02000000
73,0,0.38900000,0.23400000,0.89000000,0.13000000,-0.05000000,-0.18000000,0.00986433,-0.01354130,0.02114508,14.69000000,-23.07000000,-0.02000000
74,0,0.39600000,0.23400000,0.88700000,0.02000000,-0.18000000,0.07000000,0.00988441,-0.01372208,0.02121538,14.69000000,-23.07000000,-0.02000000
75,0,0.39100000,0.23300000,0.89000000,0.17000000,0.07000000,-0.16000000,0.01005450,-0.01365205,0.02105530,14.69000000,-23.07000000,-0.02000000
76,0,0.39300000,0.23300000,0.89100000,0.08000000,-0.05000000,-0.11000000,0.01013402,-0.01370175,0.02094595,14.69000000,-23.07000000,-0.02000000
77,0,0.39300000,0.23200000,0.88700000,-0.08000000,-0.36000000,-0.18000000,0.00562840,-0.03397705,0.01080830,14.69000000,-23.07000000,-0.02000000
78,0,0.39200000,0.23400000,0.88900000,-0.09000000,-0.10000000,-0.02000000,0.00553411,-0.03408183,0.01078735,14.69000000,-23.07000000,-0.02000000
79,0,0.39400000,0.23500000,0.88900000,-0.01000000,-0.40000000,-0.10000000,0.00552401,-0.03448556,0.01068642,14.69000000,-23.07000000,-0.02000000
80,0,0.39000000,0.23800000,0.89100000,0.06000000,-0.09000000,-0.16000000,0.00558347,-0.03457474,0.01052786,14.69000000,-23.07000000,-0.03000000
81,0,0.38900000,0.23300000,0.89200000,-0.09000000,0.36000000,0.07000000,0.00549420,-0.03421765,0.01059729,14.69000000,-23.06000000,-0.03000000
82,0,0.39300000,0.23700000,0.89200000,0.20000000,0.22000000,0.15000000,0.00569268,-0.03399932,0.01074615,14.69000000,-23.06000000,-0.02000000
83,0,0.39000000,0.22900000,0.89300000,0.02000000,-0.07000000,0.11000000,0.00680355,-0.03788739,0.01685597,14.69000000,-23.07000000,-0.02000000
84,0,0.38700000,0.23800000,0.88700000,0.06000000,0.27000000,0.22000000,0.00686645,-0.03760438,0.01708657,14.69000000,-23.07000000,-0.02000000
85,0,0.38900000,0.23300000,0.88700000,-0.21000000,0.07000000,-0.18000000,0.00665188,-0.03753286,0.01690266,14.69000000,-23.07000000,-0.02000000
86,0,0.39200000,0.23500000,0.89000000,-0.11000000,0.15000000,0.11000000,0.00654206,-0.03738310,0.01701248,14.69000000,-23.07000000,-0.02000000
87,0,0.39200000,0.23100000,0.88900000,-0.33000000,-0.13000000,-0.02000000,0.00616020,-0.03753353,0.01698934,14.69000000,-23.07000000,-0.02000000
88,0,0.39200000,0.23500000,0.89200000,-0.04000000,-0.16000000,0.24000000,0.00611017,-0.03773367,0.01728954,14.68000000,-23.07000000,-0.02000000
89,0,0.39500000,0.23600000,0.89200000,0.05000000,-0.11000000,0.31000000,0.00887499,-0.04381626,0.03443139,14.68000000,-23.07000000,-0.02000000
90,0,0.39300000,0.23800000,0.89000000,0.01000000,-0.03000000,-0.26000000,0.00888546,-0.04384768,0.03415904,14.69000000,-23.07000000,-0.02000000
91,0,0.39300000,0.23200000,0.88700000,-0.04000000,0.16000000,-0.07000000,0.00884533,-0.04368714,0.03408881,14.69000000,-23.07000000,-0.02000000
92,0,0.39000000,0.23200000,0.89000000,0.11000000,-0.11000000,-0.10000000,0.00895467,-0.04379649,0.03398940,14.69000000,-23.07000000,-0.02000000
93,0,0.38800000,0.23800000,0.88800000,0.01000000,-0.25000000,0.23000000,0.00896460,-0.04404477,0.03421782,14.69000000,-23.07000000,-0.02000000
94,0,0.38800000,0.23100000,0.88700000,0.04000000,-0.20000000,0.04000000,0.00900440,-0.04424377,0.03425762,14.68000000,-23.07000000,-0.02000000
95,0,0.39200000,0.23600000,0.89000000,-0.14000000,-0.01000000,0.19000000,0.00112050,-0.04480691,0.04495721,14.68000000,-23.07000000,-0.02000000
96,0,0.39000000,0.23200000,0.89000000,-0.04000000,0.00000000,0.12000000,0.00107806,-0.04480691,0.04508453,14.68000000,-23.07000000,-0.02000000
97,0,0.39500000,0.23600000,0.88900000,0.12000000,0.00000000,-0.04000000,0.00119797,-0.04480691,0.04504456,14.68000000,-23.07000000,-0.02000000
98,0,0.39000000,0.23600000,0.89200000,-0.15000000,-0.34000000,0.19000000,0.00104961,-0.04514319,0.04523248,14.68000000,-23.07000000,-0.02000000
99,0,0.39100000,0.23500000,0.89100000,0.15000000,0.26000000,-0.12000000,0.00119762,-0.04488665,0.04511408,14.68000000,-23.07000000,-0.02000000
100,0,0.39100000,0.23100000,0.88800000,-0.13000000,0.01000000,0.15000000,0.00106839,-0.04487671,0.04526319,14.68000000,-23.07000000,-0.02000000
101,0,0.39500000,0.23000000,0.89000000,0.26000000,-0.09000000,-0.03000000,0.01551869,-0.04987874,0.04359585,14.68000000,-23.07000000,-0.02000000
102,0,0.38800000,0.23300000,0.89100000,0.04000000,-0.03000000,0.07000000,0.01556120,-0.04991062,0.04367024,14.68000000,-23.07000000,-0.02000000
103,0,0.39100000,0.23000000,0.88600000,0.15000000,-0.11000000,0.33000000,0.01571045,-0.05002008,0.04399860,14.68000000,-23.07000000,-0.02000000
104,0,0.39200000,0.23500000,0.89000000,0.18000000,-0.06000000,0.12000000,0.01588857,-0.05007945,0.04411734,14.68000000,-23.07000000,-0.02000000
105,0,0.39100000,0.23100000,0.89100000,-0.21000000,0.16000000,-0.09000000,0.01568157,-0.04992173,0.04402863,14.68000000,-23.07000000,-0.02000000
106,0,0.39500000,0.23400000,0.88800000,0.05000000,0.06000000,0.17000000,0.01573125,-0.04986212,0.04419754,14.68000000,-23.07000000,-0.02000000
107,0,0.39400000,0.23000000,0.89200000,-0.26000000,0.07000000,-0.26000000,0.00124871,-0.04596297,0.02971500,14.68000000,-23.06000000,-0.02000000
108,0,0.39400000,0.23100000,0.89300000,-0.04000000,-0.08000000,0.11000000,0.00120677,-0.04604685,0.02983033,14.68000000,-23.06000000,-0.02000000
109,0,0.38900000,0.23300000,0.88600000,-0.14000000,0.20000000,-0.03000000,0.00106770,-0.04584818,0.02980053,14.68000000,-23.06000000,-0.02000000
110,0,0.39100000,0.23600000,0.88700000,0.15000000,-0.16000000,-0.05000000,0.00121585,-0.04600620,0.02975115,14.68000000,-23.06000000,-0.02000000
111,0,0.39200000,0.23100000,0.88700000,0.08000000,0.10000000,-0.01000000,0.00129497,-0.04590729,0.02974125,14.68000000,-23.06000000,-0.01000000
112,0,0.39500000,0.23300000,0.88800000,-0.10000000,-0.12000000,-0.05000000,0.00119538,-0.04602681,0.02969146,14.68000000,-23.06000000,-0.01000000
113,0,0.38900000,0.23700000,0.88600000,0.05000000,-0.17000000,0.04000000,0.00401224,-0.05560414,0.03194494,14.68000000,-23.06000000,-0.02000000
114,0,0.39100000,0.23900000,0.89000000,0.06000000,0.17000000,-0.05000000,0.00407397,-0.05542923,0.03189350,14.68000000,-23.06000000,-0.02000000
115,0,0.39700000,0.23800000,0.89200000,-0.04000000,-0.21000000,0.13000000,0.00403460,-0.05563593,0.03202146,14.68000000,-23.06000000,-0.02000000
116,0,0.39000000,0.23300000,0.89200000,-0.14000000,0.08000000,-0.10000000,0.00389576,-0.05555659,0.03192229,14.68000000,-23.06000000,-0.01000000
117,0,0.39100000,0.23700000,0.89000000,-0.18000000,-0.02000000,-0.00000000,0.00371910,-0.05557622,0.03192229,14.68000000,-23.06000000,-0.02000000
118,0,0.39500000,0.23900000,0.89100000,0.11000000,-0.01000000,-0.16000000,0.00382942,-0.05558625,0.03176183,14.69000000,-23.07000000,-0.02000000
119,0,0.39500000,0.23400000,0.89000000,-0.10000000,0.03000000,-0.02000000,-0.00173115,-0.05391808,0.03064971,14.68000000,-23.07000000,-0.01000000
120,0,0.39100000,0.23500000,0.89100000,0.12000000,0.14000000,-0.03000000,-0.00160586,-0.05377190,0.03061839,14.68000000,-23.06000000,-0.01000000
121,0,0.39500000,0.22800000,0.89000000,-0.03000000,0.03000000,-0.23000000,-0.00163541,-0.05374234,0.03039178,14.68000000,-23.06000000,-0.02000000
122,0,0.39100000,0.23400000,0.88700000,0.21000000,0.01000000,0.05000000,-0.00143011,-0.05373257,0.03044066,14.68000000,-23.06000000,-0.01000000
123,0,0.39200000,0.23100000,0.89200000,-0.12000000,0.10000000,0.06000000,-0.00154731,-0.05363490,0.03049926,14.68000000,-23.06000000,-0.01000000
124,0,0.39700000,0.24000000,0.89000000,-0.05000000,-0.15000000,0.09000000,-0.00159934,-0.05379098,0.03059291,14.68000000,-23.07000000,-0.02000000
125,0,0.39400000,0.23700000,0.88700000,0.00000000,-0.19000000,0.07000000,-0.00159934,-0.06441927,0.03450860,14.68000000,-23.07000000,-0.01000000
126,0,0.39200000,0.23400000,0.89400000,-0.08000000,0.01000000,0.18000000,-0.00168160,-0.06440899,0.03469367,14.68000000,-23.07000000,-0.01000000
127,0,0.39600000,0.23200000,0.89000000,0.09000000,-0.05000000,0.15000000,-0.00159277,-0.06445833,0.03484170,14.69000000,-23.06000000,-0.01000000
128,0,0.39100000,0.23500000,0.89300000,0.02000000,-0.07000000,-0.08000000,-0.00157314,-0.06452705,0.03476317,14.69000000,-23.06000000,-0.01000000
129,0,0.39300000,0.23800000,0.89200000,0.04000000,0.02000000,0.09000000,-0.00153301,-0.06450699,0.03485345,14.69000000,-23.06000000,-0.01000000
130,0,0.39300000,0.23800000,0.89200000,0.21000000,0.12000000,0.11000000,-0.00132416,-0.06438764,0.03496285,14.69000000,-23.06000000,-0.01000000
131,0,0.39100000,0.23600000,0.88700000,0.02000000,0.01000000,-0.11000000,-0.00019961,-0.06382537,0.02877782,14.69000000,-23.06000000,-0.02000000
132,0,0.38900000,0.23600000,0.88900000,0.12000000,0.06000000,0.17000000,-0.00006805,-0.06375959,0.02896420,14.69000000,-23.06000000,-0.02000000
133,0,0.39300000,0.23500000,0.88900000,0.07000000,-0.27000000,0.23000000,0.00000321,-0.06403442,0.02919832,14.69000000,-23.06000000,-0.02000000
134,0,0.39200000,0.23200000,0.89300000,-0.07000000,-0.21000000,-0.00000000,-0.00006851,-0.06424959,0.02919832,14.69000000,-23.06000000,-0.02000000
135,0,0.39600000,0.23200000,0.89100000,0.08000000,0.08000000,-0.14000000,0.00001824,-0.06416283,0.02904650,14.69000000,-23.06000000,-0.02000000
136,0,0.39500000,0.23200000,0.89100000,-0.04000000,0.13000000,0.14000000,-0.00002261,-0.06403007,0.02918948,14.69000000,-23.06000000,-0.01000000
137,0,0.39400000,0.23500000,0.89500000,-0.07000000,0.04000000,-0.01000000,-0.00388794,-0.06182131,0.02863729,14.69000000,-23.06000000,-0.01000000
138,0,0.39100000,0.23600000,0.89200000,-0.15000000,-0.05000000,0.10000000,-0.00404428,-0.06187342,0.02874151,14.69000000,-23.06000000,-0.01000000
139,0,0.38900000,0.23500000,0.88900000,-0.04000000,-0.24000000,0.07000000,-0.00408408,-0.06211222,0.02881116,14.69000000,-23.07000000,-0.01000000
140,0,0.39200000,0.23300000,0.89300000,0.04000000,-0.12000000,-0.13000000,-0.00404467,-0.06223045,0.02868308,14.69000000,-23.07000000,-0.01000000
141,0,0.39200000,0.22900000,0.89200000,0.20000000,-0.04000000,-0.08000000,-0.00384414,-0.06227056,0.02860287,14.69000000,-23.07000000,-0.02000000
142,0,0.39100000,0.23600000,0.89600000,0.02000000,0.01000000,-0.19000000,-0.00382436,-0.06226067,0.02841499,14.69000000,-23.07000000,-0.02000000
143,0,0.39000000,0.23200000,0.89100000,-0.01000000,-0.11000000,0.07000000,-0.00438984,-0.06848095,0.03237335,14.69000000,-23.07000000,-0.02000000
144,0,0.39200000,0.23200000,0.89000000,-0.14000000,-0.24000000,-0.22000000,-0.00453752,-0.06873412,0.03214128,14.69000000,-23.07000000,-0.02000000
145,0,0.39300000,0.23200000,0.89200000,0.08000000,0.04000000,0.14000000,-0.00445565,-0.06869318,0.03228455,14.69000000,-23.07000000,-0.02000000
146,0,0.38800000,0.23200000,0.88900000,-0.12000000,0.16000000,-0.05000000,-0.00457786,-0.06853024,0.03223363,14.69000000,-23.07000000,-0.02000000
147,0,0.39500000,0.23900000,0.89400000,-0.32000000,0.03000000,0.22000000,-0.00489504,-0.06850050,0.03245170,14.69000000,-23.07000000,-0.02000000
148,0,0.39200000,0.23700000,0.89200000,0.07000000,0.18000000,-0.25000000,-0.00482551,-0.06832170,0.03220336,14.69000000,-23.07000000,-0.02000000
149,0,0.39200000,0.23100000,0.89000000,-0.17000000,-0.14000000,0.08000000,-0.01476636,-0.07650828,0.03688141,14.68000000,-23.07000000,-0.02000000
150,0,0.39400000,0.23700000,0.88700000,-0.15000000,0.01000000,-0.19000000,-0.01492438,-0.07649775,0.03668126,14.69000000,-23.07000000,-0.02000000
151,0,0.39300000,0.23600000,0.89300000,0.00000000,0.15000000,0.08000000,-0.01492438,-0.07634796,0.03676114,14.69000000,-23.06000000,-0.02000000
152,0,0.39200000,0.23300000,0.89100000,-0.16000000,-0.23000000,0.02000000,-0.01508289,-0.07657583,0.03678096,14.69000000,-23.07000000,-0.02000000
153,0,0.39300000,0.23600000,0.88500000,-0.01000000,0.05000000,0.10000000,-0.01509286,-0.07652597,0.03688068,14.69000000,-23.07000000,-0.02000000
154,0,0.39400000,0.23700000,0.89100000,-0.10000000,-0.13000000,0.16000000,-0.01519196,-0.07665479,0.03703923,14.68000000,-23.07000000,-0.02000000
155,0,0.39000000,0.23600000,0.88500000,-0.02000000,0.00000000,-0.13000000,-0.01521183,-0.07665479,0.03691009,14.68000000,-23.07000000,-0.02000000
156,0,0.38900000,0.23400000,0.88700000,-0.19000000,-0.08000000,-0.07000000,-0.02575812,-0.08109534,0.03302462,14.68000000,-23.07000000,-0.02000000
157,0,0.39000000,0.22400000,0.88600000,-0.14000000,-0.07000000,-0.16000000,-0.02590580,-0.08116918,0.03285584,14.68000000,-23.07000000,-0.02000000
158,0,0.39400000,0.23700000,0.88900000,-0.09000000,-0.06000000,0.21000000,-0.02599649,-0.08122964,0.03306745,14.68000000,-23.07000000,-0.02000000
159,0,0.39100000,0.23100000,0.88800000,0.21000000,-0.05000000,-0.03000000,-0.02578518,-0.08127995,0.03303726,14.68000000,-23.07000000,-0.02000000
160,0,0.39200000,0.23700000,0.88700000,0.19000000,0.03000000,-0.35000000,-0.02558644,-0.08124857,0.03267114,14.69000000,-23.06000000,-0.02000000
161,0,0.39000000,0.23500000,0.89000000,-0.14000000,0.10000000,-0.03000000,-0.02572594,-0.08114892,0.03264125,14.69000000,-23.06000000,-0.02000000
162,0,0.39200000,0.23500000,0.88700000,-0.08000000,-0.08000000,0.15000000,-0.03018361,-0.08560660,0.04099939,14.69000000,-23.06000000,-0.02000000
163,0,0.39200000,0.22800000,0.89300000,0.06000000,-0.01000000,0.09000000,-0.03012036,-0.08561714,0.04109426,14.69000000,-23.07000000,-0.02000000
164,0,0.39500000,0.23700000,0.88800000,0.18000000,0.07000000,0.02000000,-0.02993838,-0.08554637,0.04111448,14.69000000,-23.07000000,-0.02000000
165,0,0.39100000,0.23900000,0.89200000,0.01000000,0.04000000,0.11000000,-0.02992840,-0.08550643,0.04122433,14.69000000,-23.07000000,-0.02000000
166,0,0.39300000,0.23200000,0.89300000,-0.06000000,-0.13000000,0.00000000,-0.02998806,-0.08563569,0.04122433,14.69000000,-23.07000000,-0.02000000
167,0,0.39000000,0.23300000,0.88900000,0.23000000,0.13000000,-0.15000000,-0.02975849,-0.08550593,0.04107461,14.69000000,-23.07000000,-0.02000000
168,0,0.38700000,0.23400000,0.89100000,-0.16000000,-0.10000000,-0.03000000,-0.03875558,-0.09112911,0.03938765,14.69000000,-23.07000000,-0.02000000
169,0,0.39000000,0.22700000,0.89100000,-0.13000000,0.01000000,0.14000000,-0.03889256,-0.09111858,0.03953517,14.69000000,-23.07000000,-0.02000000
170,0,0.38900000,0.23500000,0.88700000,0.06000000,0.11000000,0.08000000,-0.03883207,-0.09100768,0.03961582,14.69000000,-23.07000000,-0.02000000
171,0,0.39200000,0.23600000,0.88900000,0.23000000,-0.06000000,-0.14000000,-0.03860355,-0.09106730,0.03947672,14.69000000,-23.07000000,-0.02000000
172,0,0.39200000,0.23400000,0.88900000,0.04000000,0.08000000,-0.07000000,-0.03856354,-0.09098729,0.03940671,14.69000000,-23.07000000,-0.02000000
173,0,0.38900000,0.23400000,0.89200000,0.18000000,-0.10000000,0.53000000,-0.03838075,-0.09108885,0.03994494,14.69000000,-23.07000000,-0.02000000
174,0,0.39200000,0.23200000,0.88800000,0.31000000,-0.05000000,0.13000000,-0.02118022,-0.09386313,0.04715807,14.69000000,-23.07000000,-0.02000000
175,0,0.39400000,0.23600000,0.89400000,0.21000000,-0.22000000,0.04000000,-0.02096030,-0.09409352,0.04719996,14.69000000,-23.07000000,-0.02000000
176,0,0.39300000,0.23100000,0.89000000,0.05000000,0.07000000,-0.23000000,-0.02090997,-0.09402307,0.04696847,14.69000000,-23.07000000,-0.02000000
177,0,0.39200000,0.23400000,0.88900000,0.16000000,-0.06000000,-0.06000000,-0.02075069,-0.09408280,0.04690874,14.69000000,-23.07000000,-0.02000000
178,0,0.38900000,0.23400000,0.89000000,0.14000000,-0.02000000,-0.12000000,-0.02060508,-0.09410360,0.04678393,14.69000000,-23.07000000,-0.02000000
179,0,0.39100000,0.23100000,0.89200000,0.02000000,0.14000000,0.02000000,-0.02058501,-0.09396309,0.04680400,14.69000000,-23.07000000,-0.02000000
180,0,0.39100000,0.23500000,0.88700000,0.01000000,0.18000000,0.08000000,-0.02002031,-0.08379849,0.05132161,14.69000000,-23.07000000,-0.02000000
181,0,0.39200000,0.23600000,0.89000000,-0.12000000,-0.25000000,0.13000000,-0.02014784,-0.08406417,0.05145976,14.69000000,-23.07000000,-0.02000000
182,0,0.38900000,0.23300000,0.88800000,0.19000000,-0.08000000,-0.06000000,-0.01995724,-0.08414442,0.05139957,14.70000000,-23.07000000,-0.02000000
183,0,0.39200000,0.23100000,0.89200000,0.10000000,-0.02000000,0.10000000,-0.01985762,-0.08416435,0.05149919,14.70000000,-23.07000000,-0.02000000
184,0,0.39200000,0.23300000,0.89300000,-0.17000000,-0.08000000,-0.17000000,-0.02025991,-0.08435366,0.05109691,14.70000000,-23.07000000,-0.02000000
185,0,0.39200000,0.23500000,0.88900000,0.20000000,0.07000000,0.08000000,-0.02002657,-0.08427199,0.05119024,14.70000000,-23.07000000,-0.02000000
186,0,0.39200000,0.22900000,0.89100000,0.05000000,0.12000000,-0.01000000,-0.01732704,-0.07779311,0.05065033,14.70000000,-23.07000000,-0.02000000
187,0,0.39300000,0.23600000,0.89000000,0.02000000,0.06000000,-0.17000000,-0.01730578,-0.07772933,0.05046963,14.70000000,-23.07000000,-0.02000000
188,0,0.39600000,0.23000000,0.89200000,-0.06000000,-0.34000000,-0.23000000,-0.01736753,-0.07807923,0.05023293,14.70000000,-23.07000000,-0.02000000
189,0,0.38900000,0.23700000,0.89000000,0.02000000,0.10000000,-0.07000000,-0.01734592,-0.07797119,0.05015730,14.70000000,-23.07000000,-0.02000000
190,0,0.39100000,0.23100000,0.88900000,0.01000000,-0.04000000,-0.09000000,-0.01733589,-0.07801130,0.05006707,14.70000000,-23.07000000,-0.02000000
191,0,0.39100000,0.23300000,0.89000000,0.10000000,-0.04000000,0.31000000,-0.01723427,-0.07805195,0.05038210,14.70000000,-23.07000000,-0.02000000
192,0,0.39600000,0.23200000,0.89000000,0.18000000,-0.07000000,-0.04000000,-0.00727192,-0.08192619,0.04816825,14.70000000,-23.07000000,-0.02000000
193,0,0.39100000,0.23300000,0.89200000,-0.10000000,-0.05000000,-0.26000000,-0.00737722,-0.08197884,0.04789448,14.70000000,-23.07000000,-0.02000000
194,0,0.39300000,0.23100000,0.89300000,0.04000000,-0.01000000,0.14000000,-0.00733736,-0.08198880,0.04803398,14.70000000,-23.07000000,-0.02000000
195,0,0.39300000,0.23700000,0.89000000,0.20000000,-0.03000000,0.05000000,-0.00714012,-0.08201839,0.04808329,14.70000000,-23.07000000,-0.02000000
196,0,0.38900000,0.22800000,0.89200000,0.19000000,0.01000000,0.08000000,-0.00695238,-0.08200851,0.04816234,14.70000000,-23.07000000,-0.02000000
197,0,0.39400000,0.23300000,0.89200000,-0.04000000,0.14000000,0.05000000,-0.00699280,-0.08186704,0.04821287,14.70000000,-23.07000000,-0.02000000
198,0,0.39200000,0.23500000,0.89100000,0.04000000,0.03000000,0.02000000,-0.00475978,-0.08019227,0.04932938,14.70000000,-23.07000000,-0.02000000
199,0,0.39400000,0.22900000,0.88700000,0.04000000,0.10000000,-0.09000000,-0.00471833,-0.08008864,0.04923611,14.70000000,-23.07000000,-0.02000000
200,0,0.39200000,0.23200000,0.88900000,-0.16000000,-0.02000000,-0.04000000,-0.00487627,-0.08010839,0.04919663,14.70000000,-23.07000000,-0.02000000
201,0,0.38900000,0.23400000,0.89200000,-0.03000000,-0.13000000,-0.10000000,-0.00490663,-0.08023994,0.04909543,14.70000000,-23.07000000,-0.02000000
202,0,0.39400000,0.23200000,0.89300000,-0.09000000,0.10000000,-0.06000000,-0.00499723,-0.08013927,0.04903503,14.70000000,-23.07000000,-0.02000000
203,0,0.38900000,0.23600000,0.89800000,-0.04000000,0.08000000,0.01000000,-0.00503786,-0.08005803,0.04904518,14.70000000,-23.06000000,-0.02000000
204,0,0.38900000,0.23300000,0.89000000,0.26000000,-0.28000000,0.16000000,0.00957455,-0.09579446,0.05803743,14.70000000,-23.07000000,-0.02000000
205,0,0.38900000,0.23500000,0.89100000,0.15000000,0.12000000,-0.16000000,0.00974616,-0.09565718,0.05785439,14.70000000,-23.07000000,-0.02000000
206,0,0.39300000,0.23600000,0.88800000,0.03000000,-0.24000000,-0.01000000,0.00977679,-0.09590228,0.05784418,14.70000000,-23.07000000,-0.02000000
207,0,0.39300000,0.23200000,0.89000000,-0.01000000,0.02000000,-0.07000000,0.00976680,-0.09588230,0.05777426,14.70000000,-23.07000000,-0.02000000
208,0,0.38900000,0.23700000,0.89100000,-0.03000000,-0.11000000,0.09000000,0.00973472,-0.09599994,0.05787050,14.70000000,-23.07000000,-0.02000000
209,0,0.39300000,0.23200000,0.89000000,-0.00000000,-0.00000000,0.10000000,0.00973472,-0.09599994,0.05797816,14.70000000,-23.07000000,-0.02000000
210,0,0.39100000,0.23200000,0.89100000,-0.03000000,0.10000000,-0.16000000,0.00807741,-0.09047558,0.04913919,14.70000000,-23.07000000,-0.02000000
211,0,0.39100000,0.23300000,0.89000000,-0.04000000,0.04000000,0.05000000,0.00803554,-0.09043371,0.04919152,14.70000000,-23.06000000,-0.02000000
212,0,0.39200000,0.22900000,0.89300000,-0.15000000,-0.19000000,0.03000000,0.00788543,-0.09062385,0.04922155,14.70000000,-23.07000000,-0.02000000
213,0,0.39400000,0.23500000,0.89000000,-0.15000000,-0.17000000,-0.07000000,0.00773511,-0.09079422,0.04915139,14.70000000,-23.07000000,-0.02000000
214,0,0.38800000,0.23000000,0.89000000,0.08000000,0.16000000,-0.16000000,0.00781560,-0.09063322,0.04899040,14.70000000,-23.07000000,-0.02000000
215,0,0.39600000,0.23000000,0.89100000,-0.03000000,0.10000000,-0.03000000,0.00778572,-0.09053362,0.04896052,14.70000000,-23.07000000,-0.02000000
216,0,0.38900000,0.23100000,0.89200000,0.13000000,0.16000000,-0.04000000,0.01513318,-0.08149060,0.04669976,14.70000000,-23.07000000,-0.02000000
217,0,0.38800000,0.23200000,0.89300000,0.28000000,-0.07000000,0.24000000,0.01543929,-0.08156713,0.04696214,14.70000000,-23.07000000,-0.02000000
218,0,0.39300000,0.23200000,0.88400000,0.02000000,0.04000000,0.07000000,0.01545921,-0.08152730,0.04703184,14.70000000,-23.07000000,-0.02000000
219,0,0.39100000,0.23300000,0.89400000,-0.09000000,0.14000000,0.02000000,0.01536914,-0.08138719,0.04705186,14.70000000,-23.07000000,-0.02000000
220,0,0.38600000,0.23200000,0.89000000,-0.05000000,0.08000000,-0.08000000,0.01531911,-0.08130715,0.04697182,14.69000000,-23.07000000,-0.02000000
221,0,0.39400000,0.23700000,0.89100000,0.01000000,-0.03000000,0.07000000,0.01532910,-0.08133710,0.04704169,14.70000000,-23.07000000,-0.02000000
222,0,0.39000000,0.23200000,0.89500000,-0.12000000,0.11000000,-0.10000000,0.00867271,-0.07523541,0.04149470,14.70000000,-23.07000000,-0.01000000
223,0,0.39500000,0.23200000,0.89200000,0.06000000,-0.16000000,0.26000000,0.00873575,-0.07540351,0.04176785,14.70000000,-23.07000000,-0.01000000
224,0,0.39200000,0.23700000,0.89200000,-0.05000000,0.04000000,-0.10000000,0.00868603,-0.07536373,0.04166842,14.70000000,-23.07000000,-0.02000000
225,0,0.39000000,0.23400000,0.89000000,0.12000000,-0.09000000,0.05000000,0.00880604,-0.07545374,0.04171842,14.70000000,-23.07000000,-0.02000000
226,0,0.38900000,0.23200000,0.89000000,-0.10000000,-0.02000000,0.16000000,0.00870689,-0.07547357,0.04187705,14.70000000,-23.07000000,-0.01000000
227,0,0.39100000,0.23300000,0.88800000,0.20000000,0.11000000,0.08000000,0.00890570,-0.07536422,0.04195658,14.69000000,-23.07000000,-0.01000000
228,0,0.38500000,0.23300000,0.89300000,-0.04000000,0.02000000,0.20000000,0.00668464,-0.07425369,0.05306190,14.70000000,-23.07000000,-0.01000000
229,0,0.39000000,0.23300000,0.89300000,0.02000000,-0.06000000,-0.03000000,0.00670569,-0.07431682,0.05303033,14.69000000,-23.07000000,-0.01000000
230,0,0.38900000,0.23500000,0.89000000,0.20000000,0.02000000,0.02000000,0.00690550,-0.07429684,0.05305031,14.69000000,-23.07000000,-0.01000000
231,0,0.39000000,0.23300000,0.88600000,0.03000000,0.11000000,-0.03000000,0.00693557,-0.07418660,0.05302025,14.69000000,-23.07000000,-0.01000000
232,0,0.39000000,0.23100000,0.88900000,0.03000000,0.03000000,-0.03000000,0.00696525,-0.07415692,0.05299057,14.69000000,-23.07000000,-0.01000000
233,0,0.39700000,0.22900000,0.89000000,-0.02000000,0.03000000,0.02000000,0.00694539,-0.07412713,0.05301043,14.69000000,-23.07000000,-0.01000000
234,0,0.39500000,0.23600000,0.89000000,-0.26000000,-0.14000000,-0.09000000,-0.00775194,-0.08204108,0.04792289,14.69000000,-23.07000000,-0.01000000
235,0,0.39700000,0.23200000,0.88800000,-0.01000000,-0.02000000,0.13000000,-0.00776239,-0.08206198,0.04805872,14.69000000,-23.07000000,-0.01000000
236,0,0.39100000,0.23900000,0.89300000,-0.05000000,-0.08000000,-0.01000000,-0.00781286,-0.08214272,0.04804863,14.69000000,-23.07000000,-0.01000000
237,0,0.38600000,0.23200000,0.88900000,0.02000000,0.22000000,0.15000000,-0.00779310,-0.08192534,0.04819684,14.69000000,-23.07000000,-0.01000000
238,0,0.39100000,0.23700000,0.89200000,-0.20000000,-0.01000000,0.05000000,-0.00799019,-0.08193520,0.04824612,14.69000000,-23.07000000,-0.01000000
239,0,0.39200000,0.23000000,0.88800000,0.08000000,-0.17000000,0.14000000,-0.00790948,-0.08210670,0.04838736,14.69000000,-23.07000000,-0.01000000
240,0,0.39500000,0.23500000,0.88900000,0.02000000,-0.04000000,0.11000000,-0.00679897,-0.08432774,0.05449520,14.69000000,-23.07000000,-0.01000000
241,0,0.39200000,0.23300000,0.89300000,0.13000000,0.11000000,-0.16000000,-0.00666280,-0.08421251,0.05432761,14.69000000,-23.07000000,-0.01000000
242,0,0.39500000,0.23200000,0.88700000,-0.25000000,-0.17000000,-0.20000000,-0.00691554,-0.08438438,0.05412541,14.69000000,-23.07000000,-0.01000000
243,0,0.39500000,0.23100000,0.89400000,-0.01000000,-0.07000000,0.00000000,-0.00692561,-0.08445484,0.05412541,14.69000000,-23.07000000,-0.01000000
244,0,0.39300000,0.23400000,0.88900000,-0.13000000,0.16000000,-0.15000000,-0.00705434,-0.08429639,0.05397687,14.69000000,-23.07000000,-0.01000000
245,0,0.38800000,0.23200000,0.89000000,-0.06000000,-0.03000000,0.16000000,-0.00711389,-0.08432617,0.05413565,14.69000000,-23.07000000,-0.01000000
246,0,0.39300000,0.23000000,0.89300000,0.08000000,-0.14000000,-0.09000000,-0.00266941,-0.09210400,0.04913562,14.69000000,-23.07000000,-0.01000000
247,0,0.39000000,0.23000000,0.88800000,0.09000000,0.05000000,0.17000000,-0.00257366,-0.09205080,0.04931649,14.69000000,-23.07000000,-0.01000000
248,0,0.39200000,0.23300000,0.89200000,-0.25000000,-0.10000000,-0.02000000,-0.00282319,-0.09215061,0.04929653,14.69000000,-23.07000000,-0.01000000
249,0,0.39200000,0.23000000,0.89100000,0.16000000,-0.08000000,-0.07000000,-0.00266620,-0.09222911,0.04922784,14.69000000,-23.07000000,-0.01000000
250,0,0.39000000,0.23500000,0.89100000,-0.07000000,0.22000000,-0.23000000,-0.00273498,-0.09201293,0.04900184,14.69000000,-23.07000000,-0.01000000
251,0,0.39000000,0.23000000,0.88500000,-0.06000000,-0.33000000,-0.07000000,-0.00279394,-0.09233720,0.04893305,14.69000000,-23.08000000,-0.01000000
252,0,0.39100000,0.23100000,0.88700000,0.07000000,0.01000000,0.08000000,0.00116480,-0.09177166,0.05345733,14.69000000,-23.07000000,-0.01000000
253,0,0.39000000,0.22900000,0.89200000,-0.15000000,-0.39000000,0.24000000,0.00100411,-0.09218948,0.05371445,14.69000000,-23.08000000,-0.01000000
254,0,0.39600000,0.23100000,0.88900000,-0.02000000,0.02000000,0.12000000,0.00098411,-0.09216948,0.05383442,14.69000000,-23.08000000,-0.01000000
255,0,0.39400000,0.23300000,0.89000000,0.34000000,0.25000000,-0.07000000,0.00132590,-0.09191816,0.05376405,14.68000000,-23.07000000,-0.01000000
256,0,0.38900000,0.23400000,0.88900000,0.12000000,0.10000000,-0.08000000,0.00144622,-0.09181790,0.05368384,14.69000000,-23.07000000,-0.01000000
257,0,0.39400000,0.23400000,0.88900000,-0.01000000,-0.02000000,-0.18000000,0.00143624,-0.09183785,0.05350426,14.69000000,-23.07000000,-0.01000000
258,0,0.39300000,0.22400000,0.89000000,-0.07000000,0.10000000,-0.11000000,-0.00244431,-0.08629420,0.04740625,14.68000000,-23.07000000,-0.01000000
259,0,0.38800000,0.23500000,0.89300000,-0.12000000,0.04000000,0.44000000,-0.00257527,-0.08625055,0.04788644,14.68000000,-23.08000000,-0.01000000
260,0,0.38900000,0.23500000,0.89100000,0.14000000,-0.27000000,-0.23000000,-0.00243476,-0.08652152,0.04765561,14.68000000,-23.07000000,-0.01000000
261,0,0.39300000,0.23200000,0.89100000,0.19000000,-0.06000000,0.18000000,-0.00224612,-0.08658109,0.04783433,14.68000000,-23.07000000,-0.01000000
262,0,0.39300000,0.23600000,0.88800000,0.18000000,-0.15000000,0.13000000,-0.00206787,-0.08672963,0.04796307,14.69000000,-23.08000000,-0.01000000
263,0,0.39400000,0.23100000,0.89200000,-0.03000000,0.14000000,-0.10000000,-0.00209765,-0.08659066,0.04786380,14.69000000,-23.07000000,-0.01000000
264,0,0.39400000,0.23400000,0.89000000,-0.21000000,0.10000000,0.02000000,-0.01378222,-0.08102658,0.04897662,14.69000000,-23.07000000,-0.01000000
265,0,0.38900000,0.23500000,0.88900000,-0.03000000,0.06000000,-0.28000000,-0.01381397,-0.08096309,0.04868032,14.69000000,-23.07000000,-0.01000000
266,0,0.39700000,0.23000000,0.89500000,-0.01000000,-0.20000000,0.20000000,-0.01382464,-0.08117664,0.04889387,14.69000000,-23.07000000,-0.01000000
267,0,0.39000000,0.23100000,0.89300000,0.02000000,-0.22000000,-0.20000000,-0.01380312,-0.08141338,0.04867865,14.69000000,-23.08000000,-0.01000000
268,0,0.39100000,0.23400000,0.88900000,0.05000000,0.07000000,0.12000000,-0.01375317,-0.08134344,0.04879854,14.69000000,-23.07000000,-0.01000000
269,0,0.39000000,0.23400000,0.89100000,-0.06000000,0.08000000,0.24000000,-0.01381357,-0.08126291,0.04904015,14.69000000,-23.07000000,-0.01000000
270,0,0.39400000,0.23200000,0.89100000,-0.07000000,-0.25000000,-0.02000000,-0.01774813,-0.09531490,0.04791599,14.69000000,-23.07000000,-0.01000000
271,0,0.39000000,0.23300000,0.89400000,-0.01000000,-0.04000000,0.16000000,-0.01775844,-0.09535616,0.04808103,14.69000000,-23.07000000,-0.01000000
272,0,0.38800000,0.23800000,0.89000000,0.06000000,0.06000000,-0.09000000,-0.01769943,-0.09529715,0.04799251,14.69000000,-23.07000000,-0.01000000
273,0,0.38900000,0.22900000,0.89300000,-0.04000000,-0.03000000,0.24000000,-0.01773903,-0.09532685,0.04823011,14.69000000,-23.07000000,-0.01000000
274,0,0.39000000,0.23600000,0.88900000,0.01000000,0.01000000,0.07000000,-0.01772910,-0.09531692,0.04829961,14.69000000,-23.07000000,-0.01000000
275,0,0.39500000,0.23200000,0.88900000,0.12000000,-0.21000000,0.05000000,-0.01760987,-0.09552558,0.04834929,14.68000000,-23.07000000,-0.01000000
276,0,0.39100000,0.23200000,0.89000000,0.05000000,-0.22000000,0.23000000,-0.01468299,-0.10840385,0.06181294,14.68000000,-23.07000000,-0.01000000
277,0,0.39000000,0.23100000,0.89200000,0.04000000,0.08000000,0.10000000,-0.01464060,-0.10831906,0.06191893,14.68000000,-23.07000000,-0.01000000
278,0,0.39600000,0.23400000,0.88900000,0.23000000,0.09000000,-0.22000000,-0.01441372,-0.10823028,0.06170191,14.69000000,-23.07000000,-0.01000000
279,0,0.39400000,0.23100000,0.88900000,0.01000000,0.35000000,0.04000000,-0.01440391,-0.10788702,0.06174114,14.69000000,-23.07000000,-0.01000000
280,0,0.39200000,0.23200000,0.89100000,-0.04000000,0.15000000,-0.28000000,-0.01444316,-0.10773985,0.06146640,14.69000000,-23.07000000,-0.01000000
281,0,0.39200000,0.23200000,0.89200000,0.10000000,-0.25000000,-0.20000000,-0.01434485,-0.10798562,0.06126978,14.69000000,-23.07000000,-0.01000000
282,0,0.38900000,0.23400000,0.88900000,-0.12000000,0.09000000,0.15000000,-0.01446433,-0.10789600,0.06141914,14.69000000,-23.07000000,-0.01000000
283,0,0.38800000,0.23600000,0.88900000,0.10000000,-0.11000000,-0.06000000,-0.00890135,-0.11401529,0.05808135,14.69000000,-23.07000000,-0.01000000
284,0,0.38800000,0.23100000,0.89600000,0.08000000,-0.16000000,-0.11000000,-0.00881599,-0.11418601,0.05796398,14.69000000,-23.07000000,-0.01000000
285,0,0.39000000,0.23800000,0.89500000,-0.01000000,-0.22000000,-0.11000000,-0.00882662,-0.11441986,0.05784705,14.69000000,-23.07000000,-0.01000000
286,0,0.39300000,0.23200000,0.89300000,-0.08000000,0.19000000,-0.04000000,-0.00890666,-0.11422977,0.05780703,14.69000000,-23.07000000,-0.01000000
287,0,0.39400000,0.23200000,0.88700000,-0.19000000,-0.10000000,-0.14000000,-0.00909544,-0.11432913,0.05766793,14.68000000,-23.07000000,-0.01000000
288,0,0.39800000,0.23100000,0.88900000,0.22000000,0.36000000,0.10000000,-0.00885975,-0.11394345,0.05777506,14.68000000,-23.07000000,-0.01000000
289,0,0.38800000,0.23300000,0.88700000,-0.09000000,-0.03000000,-0.06000000,-0.01392748,-0.11563270,0.05439657,14.68000000,-23.07000000,-0.01000000
290,0,0.39100000,0.23400000,0.89000000,-0.14000000,0.09000000,0.08000000,-0.01407256,-0.11553943,0.05447947,14.68000000,-23.07000000,-0.01000000
291,0,0.39600000,0.23400000,0.88800000,-0.03000000,0.06000000,0.11000000,-0.01410239,-0.11547977,0.05458885,14.68000000,-23.06000000,-0.01000000
292,0,0.39100000,0.23300000,0.89000000,-0.10000000,0.02000000,-0.14000000,-0.01420180,-0.11545989,0.05444968,14.68000000,-23.06000000,-0.01000000
293,0,0.39800000,0.23200000,0.89100000,-0.01000000,-0.14000000,-0.07000000,-0.01421187,-0.11560086,0.05437919,14.68000000,-23.06000000,-0.01000000
294,0,0.38500000,0.23300000,0.88800000,-0.04000000,0.17000000,-0.07000000,-0.01425155,-0.11543220,0.05430974,14.68000000,-23.06000000,-0.01000000
295,0,0.38900000,0.23500000,0.89000000,-0.01000000,0.02000000,-0.07000000,-0.01480701,-0.11432129,0.05042158,14.68000000,-23.06000000,-0.01000000
296,0,0.39300000,0.23300000,0.88400000,-0.03000000,0.27000000,-0.17000000,-0.01483882,-0.11403493,0.05024128,14.69000000,-23.06000000,-0.01000000
297,0,0.39100000,0.23400000,0.89700000,0.20000000,-0.02000000,-0.03000000,-0.01463953,-0.11405486,0.05021138,14.68000000,-23.06000000,-0.01000000
298,0,0.39000000,0.23100000,0.89400000,-0.09000000,-0.04000000,0.19000000,-0.01472797,-0.11409417,0.05039808,14.69000000,-23.06000000,-0.01000000
299,0,0.39700000,0.23500000,0.89100000,0.04000000,0.10000000,0.14000000,-0.01468691,-0.11399152,0.05054179,14.68000000,-23.06000000,-0.01000000
300,0,0.39100000,0.23400000,0.89000000,0.21000000,-0.12000000,0.14000000,-0.01447820,-0.11411078,0.05068093,14.68000000,-23.06000000,-0.01000000
301,0,0.38400000,0.23200000,0.88800000,-0.02000000,0.05000000,-0.03000000,-0.01559011,-0.11133102,0.04901307,14.69000000,-23.06000000,-0.01000000
302,0,0.38800000,0.23300000,0.89400000,0.02000000,-0.09000000,0.03000000,-0.01556936,-0.11142439,0.04904419,14.69000000,-23.06000000,-0.01000000
303,0,0.39200000,0.23300000,0.89000000,0.04000000,-0.04000000,0.08000000,-0.01552530,-0.11146845,0.04913232,14.69000000,-23.06000000,-0.01000000
304,0,0.38700000,0.23800000,0.88900000,-0.22000000,0.14000000,-0.16000000,-0.01574667,-0.11132758,0.04897133,14.69000000,-23.06000000,-0.01000000
305,0,0.39200000,0.23400000,0.88800000,0.05000000,-0.00000000,0.08000000,-0.01569622,-0.11132758,0.04905203,14.69000000,-23.06000000,-0.01000000
306,0,0.39400000,0.23200000,0.88900000,0.06000000,-0.07000000,-0.01000000,-0.01563587,-0.11139800,0.04904197,14.69000000,-23.06000000,-0.01000000
307,0,0.39300000,0.23200000,0.89000000,0.03000000,0.06000000,0.05000000,-0.01394727,-0.10802081,0.05185630,14.68000000,-23.06000000,-0.01000000
308,0,0.39600000,0.23300000,0.88500000,-0.04000000,0.26000000,-0.16000000,-0.01398919,-0.10774834,0.05168862,14.68000000,-23.06000000,-0.01000000
309,0,0.39100000,0.22800000,0.88900000,0.27000000,0.30000000,0.20000000,-0.01372034,-0.10744962,0.05188777,14.68000000,-23.06000000,-0.01000000
310,0,0.39700000,0.23300000,0.88700000,-0.21000000,-0.03000000,0.17000000,-0.01393120,-0.10747975,0.05205847,14.68000000,-23.06000000,-0.01000000
311,0,0.39700000,0.23700000,0.88800000,0.02000000,-0.01000000,0.05000000,-0.01391131,-0.10748969,0.05210818,14.68000000,-23.06000000,-0.01000000
312,0,0.39100000,0.23700000,0.88700000,-0.01000000,-0.10000000,-0.04000000,-0.01392130,-0.10758952,0.05206825,14.68000000,-23.06000000,-0.01000000
313,0,0.38900000,0.23400000,0.88900000,-0.09000000,-0.20000000,-0.10000000,-0.01891944,-0.11869651,0.04651475,14.68000000,-23.06000000,-0.01000000
314,0,0.39400000,0.23000000,0.88700000,0.10000000,0.08000000,-0.10000000,-0.01881450,-0.11861256,0.04640981,14.68000000,-23.06000000,-0.01000000
315,0,0.39200000,0.23700000,0.88900000,-0.06000000,0.04000000,0.16000000,-0.01887422,-0.11857275,0.04656906,14.68000000,-23.06000000,-0.01000000
316,0,0.38900000,0.23400000,0.88900000,-0.11000000,-0.09000000,0.18000000,-0.01898443,-0.11866293,0.04674940,14.68000000,-23.06000000,-0.01000000
317,0,0.39200000,0.22500000,0.88900000,0.20000000,0.13000000,-0.13000000,-0.01878619,-0.11853407,0.04662055,14.68000000,-23.06000000,-0.01000000
318,0,0.38900000,0.23600000,0.89000000,0.22000000,0.17000000,0.08000000,-0.01856844,-0.11836581,0.04669973,14.68000000,-23.06000000,-0.01000000
319,0,0.39500000,0.23200000,0.88900000,-0.02000000,0.05000000,0.31000000,-0.01967976,-0.11558750,0.06392524,14.68000000,-23.06000000,-0.01000000
320,0,0.38900000,0.23300000,0.89000000,0.12000000,-0.13000000,-0.29000000,-0.01955412,-0.11572361,0.06362161,14.68000000,-23.06000000,-0.01000000
321,0,0.39000000,0.23200000,0.88800000,0.06000000,-0.09000000,0.17000000,-0.01949471,-0.11581273,0.06378996,14.69000000,-23.06000000,-0.01000000
322,0,0.38600000,0.23200000,0.88800000,0.10000000,0.24000000,-0.14000000,-0.01939525,-0.11557404,0.06365072,14.69000000,-23.06000000,-0.01000000
323,0,0.39100000,0.24000000,0.89000000,0.18000000,-0.31000000,-0.02000000,-0.01921636,-0.11588213,0.06363084,14.69000000,-23.06000000,-0.01000000
324,0,0.39100000,0.23800000,0.88800000,-0.11000000,-0.14000000,0.36000000,-0.01932550,-0.11602103,0.06398802,14.69000000,-23.06000000,-0.01000000
325,0,0.38900000,0.23100000,0.89100000,-0.08000000,0.00000000,0.02000000,-0.02384369,-0.11602103,0.06511757,14.69000000,-23.06000000,-0.01000000
326,0,0.39300000,0.23700000,0.88600000,-0.03000000,-0.28000000,0.10000000,-0.02387503,-0.11631352,0.06522203,14.69000000,-23.06000000,-0.01000000
327,0,0.38700000,0.23400000,0.88900000,0.21000000,0.08000000,0.25000000,-0.02366202,-0.11623238,0.06547562,14.69000000,-23.06000000,-0.01000000
328,0,0.39300000,0.23600000,0.89100000,-0.31000000,-0.18000000,-0.20000000,-0.02397100,-0.11641178,0.06527628,14.69000000,-23.06000000,-0.01000000
329,0,0.39400000,0.22900000,0.88500000,0.07000000,-0.04000000,0.04000000,-0.02390154,-0.11645147,0.06531596,14.69000000,-23.06000000,-0.01000000
330,0,0.38900000,0.23200000,0.88400000,-0.12000000,0.02000000,-0.08000000,-0.02402120,-0.11643152,0.06523619,14.69000000,-23.06000000,-0.01000000
331,0,0.39400000,0.23300000,0.88700000,-0.09000000,-0.12000000,0.00000000,-0.02902800,-0.12310725,0.06523619,14.69000000,-23.06000000,-0.01000000
332,0,0.39200000,0.23500000,0.88900000,0.17000000,0.23000000,0.09000000,-0.02883858,-0.12285097,0.06533647,14.69000000,-23.06000000,-0.01000000
333,0,0.39200000,0.23700000,0.88400000,-0.09000000,0.18000000,-0.12000000,-0.02893386,-0.12266041,0.06520943,14.69000000,-23.06000000,-0.01000000
334,0,0.39000000,0.23200000,0.89300000,-0.07000000,-0.13000000,0.04000000,-0.02900506,-0.12279265,0.06525012,14.69000000,-23.06000000,-0.01000000
335,0,0.39700000,0.23400000,0.89300000,0.02000000,0.02000000,0.05000000,-0.02898479,-0.12277237,0.06530080,14.69000000,-23.06000000,-0.01000000
336,0,0.39300000,0.23100000,0.89100000,0.31000000,0.00000000,-0.07000000,-0.02867404,-0.12277237,0.06523063,14.69000000,-23.06000000,-0.01000000
337,0,0.39300000,0.23200000,0.88700000,0.01000000,0.01000000,-0.10000000,-0.02812028,-0.12221861,0.05969304,14.69000000,-23.06000000,-0.01000000
338,0,0.39200000,0.23300000,0.88800000,0.04000000,0.08000000,-0.17000000,-0.02807859,-0.12213524,0.05951586,14.69000000,-23.06000000,-0.01000000
339,0,0.39700000,0.22500000,0.89200000,0.03000000,-0.03000000,-0.17000000,-0.02804819,-0.12216564,0.05934358,14.69000000,-23.06000000,-0.01000000
340,0,0.39000000,0.23600000,0.89100000,0.11000000,-0.04000000,0.04000000,-0.02793905,-0.12220532,0.05938327,14.69000000,-23.06000000,-0.01000000
341,0,0.39400000,0.23100000,0.88900000,-0.04000000,0.12000000,-0.25000000,-0.02797882,-0.12208604,0.05913475,14.69000000,-23.06000000,-0.01000000
342,0,0.39200000,0.23100000,0.88900000,0.14000000,0.20000000,0.01000000,-0.02782907,-0.12187211,0.05914545,14.70000000,-23.06000000,-0.01000000
343,0,0.39400000,0.23200000,0.89400000,-0.15000000,-0.09000000,0.19000000,-0.03628108,-0.12694331,0.06985133,14.70000000,-23.06000000,-0.01000000
344,0,0.39300000,0.23300000,0.89500000,0.21000000,0.06000000,-0.13000000,-0.03605816,-0.12687962,0.06971333,14.70000000,-23.06000000,-0.01000000
345,0,0.39500000,0.23200000,0.89500000,-0.20000000,-0.04000000,0.06000000,-0.03625907,-0.12691980,0.06977361,14.70000000,-23.06000000,-0.01000000
346,0,0.39300000,0.23500000,0.89500000,-0.04000000,0.11000000,-0.07000000,-0.03629876,-0.12681064,0.06970414,14.70000000,-23.06000000,-0.01000000
347,0,0.39000000,0.23600000,0.88800000,0.20000000,0.31000000,0.01000000,-0.03610033,-0.12650307,0.06971406,14.70000000,-23.06000000,-0.01000000
348,0,0.39000000,0.23700000,0.88900000,0.19000000,0.02000000,-0.12000000,-0.03590842,-0.12648287,0.06959286,14.70000000,-23.06000000,-0.01000000
349,0,0.39200000,0.22900000,0.88900000,-0.00000000,0.08000000,-0.11000000,-0.03590842,-0.12203946,0.06348317,14.70000000,-23.06000000,-0.01000000
350,0,0.39200000,0.23800000,0.88600000,-0.11000000,0.02000000,0.10000000,-0.03602656,-0.12201798,0.06359057,14.70000000,-23.06000000,-0.01000000
351,0,0.39800000,0.23400000,0.89200000,0.10000000,-0.07000000,-0.02000000,-0.03592536,-0.12208882,0.06357033,14.70000000,-23.06000000,-0.01000000
352,0,0.39100000,0.23700000,0.89300000,-0.20000000,0.08000000,-0.10000000,-0.03612546,-0.12200878,0.06347028,14.70000000,-23.06000000,-0.01000000
353,0,0.39000000,0.23400000,0.89000000,0.06000000,-0.04000000,0.16000000,-0.03606546,-0.12204878,0.06363028,14.70000000,-23.06000000,-0.01000000
354,0,0.39300000,0.22900000,0.88700000,0.02000000,-0.02000000,-0.04000000,-0.03604519,-0.12206905,0.06358975,14.70000000,-23.06000000,-0.01000000
355,0,0.39000000,0.23600000,0.89000000,-0.03000000,0.02000000,0.25000000,-0.03771046,-0.12095887,0.07746698,14.70000000,-23.06000000,-0.01000000
356,0,0.39400000,0.23700000,0.89100000,-0.01000000,0.19000000,0.04000000,-0.03772100,-0.12075863,0.07750914,14.70000000,-23.06000000,-0.01000000
357,0,0.39300000,0.22700000,0.88900000,0.02000000,-0.02000000,-0.11000000,-0.03770105,-0.12077858,0.07739940,14.70000000,-23.06000000,-0.01000000
358,0,0.38800000,0.23300000,0.88900000,0.18000000,-0.06000000,0.00000000,-0.03752340,-0.12083779,0.07739940,14.70000000,-23.06000000,-0.01000000
359,0,0.39700000,0.23000000,0.89200000,-0.12000000,-0.00000000,0.20000000,-0.03764203,-0.12083779,0.07759712,14.70000000,-23.06000000,-0.01000000
360,0,0.39200000,0.23900000,0.89000000,0.08000000,-0.09000000,-0.04000000,-0.03756249,-0.12092728,0.07755735,14.70000000,-23.06000000,-0.01000000
361,0,0.38900000,0.23100000,0.88900000,-0.08000000,-0.17000000,0.11000000,-0.04207814,-0.13052305,0.08376637,14.70000000,-23.06000000,-0.01000000
362,0,0.38900000,0.23700000,0.88800000,0.11000000,0.11000000,-0.05000000,-0.04196245,-0.13040736,0.08371378,14.70000000,-23.06000000,-0.01000000
363,0,0.39100000,0.23500000,0.89200000,-0.03000000,0.26000000,0.31000000,-0.04199232,-0.13014853,0.08402239,14.70000000,-23.06000000,-0.01000000
364,0,0.39100000,0.23700000,0.89200000,-0.20000000,-0.20000000,0.23000000,-0.04219137,-0.13034758,0.08425130,14.70000000,-23.06000000,-0.01000000
365,0,0.38900000,0.23500000,0.89200000,0.07000000,0.18000000,-0.09000000,-0.04211823,-0.13015951,0.08415726,14.70000000,-23.06000000,-0.01000000
366,0,0.39100000,0.23600000,0.88900000,-0.01000000,-0.00000000,-0.08000000,-0.04212823,-0.13015951,0.08407728,14.70000000,-23.06000000,-0.01000000
367,0,0.39100000,0.23200000,0.88800000,-0.14000000,-0.18000000,-0.14000000,-0.04989174,-0.14014116,0.07631377,14.70000000,-23.06000000,-0.01000000
368,0,0.39200000,0.23300000,0.89100000,0.07000000,0.01000000,0.03000000,-0.04980788,-0.14012918,0.07634971,14.70000000,-23.06000000,-0.01000000
369,0,0.39200000,0.23400000,0.88800000,-0.02000000,0.19000000,0.26000000,-0.04983133,-0.13990642,0.07665453,14.69000000,-23.06000000,-0.01000000
370,0,0.39000000,0.23300000,0.88900000,0.10000000,-0.03000000,-0.11000000,-0.04973006,-0.13993680,0.07654314,14.69000000,-23.06000000,-0.01000000
371,0,0.39100000,0.23800000,0.88600000,-0.21000000,-0.37000000,0.17000000,-0.04994067,-0.14030787,0.07671363,14.69000000,-23.06000000,-0.01000000
372,0,0.38900000,0.23400000,0.89200000,-0.21000000,0.07000000,0.12000000,-0.05014927,-0.14023834,0.07683283,14.69000000,-23.06000000,-0.01000000
373,0,0.39400000,0.22700000,0.88900000,-0.22000000,-0.05000000,0.25000000,-0.06234818,-0.14301082,0.09069523,14.69000000,-23.06000000,-0.01000000
374,0,0.38500000,0.23500000,0.89100000,0.04000000,0.14000000,-0.34000000,-0.06230629,-0.14286421,0.09033917,14.69000000,-23.06000000,-0.01000000
375,0,0.38800000,0.23900000,0.88800000,0.02000000,-0.18000000,0.15000000,-0.06228630,-0.14304413,0.09048910,14.69000000,-23.06000000,-0.01000000
376,0,0.39200000,0.23100000,0.89000000,0.26000000,-0.05000000,-0.01000000,-0.06202822,-0.14309376,0.09047918,14.69000000,-23.06000000,-0.01000000
377,0,0.39000000,0.23200000,0.88900000,-0.06000000,0.15000000,0.25000000,-0.06208835,-0.14294343,0.09072972,14.69000000,-23.06000000,-0.01000000
378,0,0.38900000,0.22700000,0.88800000,0.02000000,0.01000000,0.01000000,-0.06206844,-0.14293348,0.09073967,14.69000000,-23.06000000,-0.01000000
379,0,0.39100000,0.23200000,0.88900000,0.10000000,0.25000000,-0.16000000,-0.05644070,-0.12886413,0.08173529,14.69000000,-23.06000000,-0.01000000
380,0,0.39200000,0.23200000,0.89200000,0.69000000,0.47000000,0.08000000,-0.05572864,-0.12837910,0.08181785,14.70000000,-23.05000000,-0.01000000
381,0,0.38700000,0.23300000,0.88900000,0.77000000,0.41000000,-0.02000000,-0.05497294,-0.12797672,0.08179822,14.70000000,-23.05000000,-0.01000000
382,0,0.39400000,0.23100000,0.89200000,0.55000000,0.44000000,-0.08000000,-0.05442633,-0.12753943,0.08171872,14.71000000,-23.05000000,-0.01000000
383,0,0.39200000,0.23400000,0.89400000,0.28000000,-0.07000000,0.00000000,-0.05414919,-0.12760871,0.08171872,14.71000000,-23.04000000,-0.01000000
384,0,0.39000000,0.23400000,0.89200000,0.14000000,-0.10000000,-0.05000000,-0.05401086,-0.12770753,0.08166931,14.72000000,-23.04000000,-0.01000000
385,0,0.38700000,0.23300000,0.89000000,-0.04000000,-0.01000000,0.21000000,-0.05623341,-0.12826316,0.09333771,14.72000000,-23.04000000,-0.01000000
386,0,0.39200000,0.23300000,0.88800000,-0.32000000,0.15000000,-0.03000000,-0.05656379,-0.12810830,0.09330673,14.71000000,-23.04000000,-0.01000000
387,0,0.38900000,0.23400000,0.89200000,-0.19000000,-0.16000000,-0.02000000,-0.05675004,-0.12826513,0.09328713,14.71000000,-23.04000000,-0.01000000
388,0,0.39000000,0.23300000,0.89100000,-0.05000000,0.05000000,-0.05000000,-0.05679997,-0.12821520,0.09323720,14.71000000,-23.04000000,-0.01000000
389,0,0.39400000,0.23300000,0.89200000,0.12000000,0.10000000,0.21000000,-0.05668105,-0.12811611,0.09344530,14.71000000,-23.04000000,-0.01000000
390,0,0.38600000,0.23200000,0.89000000,-0.00000000,0.08000000,0.23000000,-0.05668105,-0.12803742,0.09367152,14.71000000,-23.04000000,-0.01000000
391,0,0.38900000,0.23700000,0.89200000,-0.09000000,-0.21000000,-0.08000000,-0.06169604,-0.13973906,0.08921376,14.71000000,-23.04000000,-0.01000000
392,0,0.38700000,0.23200000,0.89200000,-0.00000000,-0.03000000,0.07000000,-0.06169604,-0.13977001,0.08928596,14.71000000,-23.04000000,-0.01000000
393,0,0.39300000,0.23300000,0.89400000,-0.00000000,0.06000000,-0.04000000,-0.06169604,-0.13971009,0.08924602,14.71000000,-23.04000000,-0.01000000
394,0,0.39500000,0.23400000,0.89000000,0.17000000,0.14000000,0.23000000,-0.06152543,-0.13956959,0.08947685,14.71000000,-23.04000000,-0.01000000
395,0,0.39200000,0.23500000,0.88800000,0.09000000,-0.04000000,-0.16000000,-0.06143654,-0.13960909,0.08931883,14.71000000,-23.04000000,-0.01000000
396,0,0.39000000,0.23700000,0.89200000,-0.21000000,-0.26000000,0.06000000,-0.06164324,-0.13986501,0.08937788,14.71000000,-23.04000000,-0.01000000
397,0,0.39100000,0.23600000,0.89100000,-0.17000000,0.22000000,0.23000000,-0.07174411,-0.12679330,0.10304376,14.71000000,-23.04000000,-0.01000000
398,0,0.39700000,0.23700000,0.89300000,-0.27000000,0.10000000,0.12000000,-0.07202281,-0.12669007,0.10316763,14.71000000,-23.04000000,-0.01000000
399,0,0.38300000,0.23200000,0.88900000,-0.15000000,-0.00000000,-0.02000000,-0.07217020,-0.12669007,0.10314798,14.71000000,-23.04000000,-0.01000000
400,0,0.39700000,0.23500000,0.89800000,0.19000000,0.04000000,-0.00000000,-0.07198255,-0.12665057,0.10314798,14.71000000,-23.04000000,-0.01000000
401,0,0.39600000,0.24100000,0.89200000,-0.00000000,0.12000000,-0.06000000,-0.07198255,-0.12652982,0.10308760,14.71000000,-23.04000000,-0.01000000
402,0,0.38900000,0.23400000,0.88900000,0.15000000,0.07000000,0.07000000,-0.07183434,-0.12646065,0.10315677,14.71000000,-23.05000000,-0.01000000
403,0,0.39300000,0.23500000,0.89200000,0.16000000,0.21000000,-0.12000000,-0.07167616,-0.12625305,0.10303814,14.71000000,-23.04000000,-0.01000000
404,0,0.38900000,0.23500000,0.89300000,-0.15000000,-0.17000000,0.05000000,-0.08001810,-0.13570724,0.10581879,14.71000000,-23.04000000,-0.01000000
405,0,0.38700000,0.23700000,0.88800000,0.01000000,-0.09000000,0.24000000,-0.08000679,-0.13580901,0.10609015,14.71000000,-23.04000000,-0.01000000
406,0,0.39000000,0.23200000,0.89100000,-0.17000000,-0.15000000,0.14000000,-0.08018977,-0.13597045,0.10624084,14.71000000,-23.04000000,-0.01000000
407,0,0.39000000,0.23200000,0.88900000,-0.06000000,0.13000000,-0.08000000,-0.08025466,-0.13582985,0.10615431,14.71000000,-23.04000000,-0.01000000
408,0,0.39000000,0.23200000,0.89000000,-0.01000000,-0.05000000,0.06000000,-0.08026559,-0.13588450,0.10621989,14.71000000,-23.04000000,-0.01000000
409,0,0.38400000,0.23300000,0.88900000,0.30000000,0.02000000,-0.23000000,-0.07994849,-0.13586336,0.10597678,14.71000000,-23.04000000,-0.01000000
410,0,0.39100000,0.23100000,0.89100000,-0.06000000,0.04000000,-0.05000000,-0.08326150,-0.13365469,0.10321593,14.71000000,-23.04000000,-0.01000000
411,0,0.38800000,0.23700000,0.89200000,0.11000000,-0.08000000,0.16000000,-0.08314717,-0.13373783,0.10338223,14.71000000,-23.04000000,-0.01000000
412,0,0.38400000,0.23200000,0.88900000,0.01000000,-0.05000000,-0.13000000,-0.08313705,-0.13378844,0.10325065,14.71000000,-23.04000000,-0.01000000
413,0,0.39600000,0.23500000,0.88900000,-0.10000000,-0.28000000,-0.08000000,-0.08323784,-0.13407066,0.10317002,14.71000000,-23.04000000,-0.01000000
414,0,0.39600000,0.23400000,0.88900000,-0.06000000,-0.25000000,0.11000000,-0.08329704,-0.13431733,0.10327855,14.71000000,-23.04000000,-0.01000000
415,0,0.39000000,0.23700000,0.89000000,-0.16000000,-0.37000000,-0.05000000,-0.08345487,-0.13468231,0.10322923,14.71000000,-23.04000000,-0.01000000
416,0,0.38900000,0.23400000,0.89200000,-0.06000000,-0.12000000,0.05000000,-0.08683676,-0.14144609,0.10604747,14.71000000,-23.04000000,-0.01000000
417,0,0.39300000,0.23300000,0.89200000,-0.10000000,0.22000000,-0.08000000,-0.08693998,-0.14121901,0.10596490,14.71000000,-23.04000000,-0.01000000
418,0,0.39000000,0.23100000,0.88800000,0.15000000,0.26000000,0.17000000,-0.08679034,-0.14095962,0.10613450,14.71000000,-23.04000000,-0.01000000
419,0,0.39400000,0.23600000,0.88900000,0.15000000,0.08000000,0.25000000,-0.08664158,-0.14088028,0.10638242,14.71000000,-23.04000000,-0.01000000
420,0,0.39000000,0.23700000,0.89200000,0.02000000,-0.15000000,0.05000000,-0.08662187,-0.14102818,0.10643172,14.71000000,-23.04000000,-0.01000000
421,0,0.39200000,0.23800000,0.89100000,0.08000000,0.04000000,0.18000000,-0.08654278,-0.14098863,0.10660966,14.71000000,-23.04000000,-0.01000000
422,0,0.38900000,0.23200000,0.89100000,-0.39000000,-0.03000000,0.14000000,-0.10821387,-0.14265564,0.11438903,14.71000000,-23.04000000,-0.01000000
423,0,0.39200000,0.23600000,0.88900000,-0.04000000,-0.04000000,-0.23000000,-0.10825495,-0.14269673,0.11415277,14.71000000,-23.04000000,-0.01000000
424,0,0.38800000,0.23200000,0.88500000,0.15000000,-0.12000000,0.14000000,-0.10810516,-0.14281656,0.11429257,14.71000000,-23.04000000,-0.01000000
425,0,0.38900000,0.23700000,0.89200000,0.10000000,0.12000000,-0.11000000,-0.10800538,-0.14269682,0.11418280,14.71000000,-23.04000000,-0.01000000
426,0,0.39600000,0.23800000,0.89000000,0.12000000,0.14000000,0.00000000,-0.10788809,-0.14255998,0.11418280,14.72000000,-23.04000000,-0.01000000
427,0,0.38900000,0.23400000,0.89200000,-0.04000000,-0.01000000,0.54000000,-0.10792749,-0.14256983,0.11471471,14.72000000,-23.04000000,-0.01000000
428,0,0.39200000,0.23500000,0.89300000,-0.03000000,0.13000000,-0.24000000,-0.10959925,-0.13532556,0.10134066,14.71000000,-23.04000000,-0.01000000
429,0,0.38900000,0.23100000,0.89200000,0.08000000,0.08000000,-0.01000000,-0.10951591,-0.13524222,0.10133024,14.71000000,-23.04000000,-0.01000000
430,0,0.38700000,0.23800000,0.89100000,-0.06000000,0.02000000,-0.03000000,-0.10957594,-0.13522221,0.10130023,14.71000000,-23.04000000,-0.01000000
431,0,0.39100000,0.23800000,0.89100000,-0.11000000,0.09000000,0.32000000,-0.10968476,-0.13513317,0.10161680,14.71000000,-23.04000000,-0.01000000
432,0,0.39300000,0.23200000,0.89300000,0.05000000,-0.12000000,0.10000000,-0.10963543,-0.13525157,0.10171547,14.71000000,-23.04000000,-0.01000000
433,0,0.38900000,0.24000000,0.89000000,-0.22000000,-0.02000000,-0.02000000,-0.10985365,-0.13527141,0.10169563,14.71000000,-23.04000000,-0.01000000
434,0,0.38100000,0.23400000,0.88700000,-0.07000000,0.22000000,0.05000000,-0.11380423,-0.12285529,0.10451748,14.71000000,-23.04000000,-0.01000000
435,0,0.39400000,0.23400000,0.88700000,-0.20000000,0.30000000,-0.12000000,-0.11401306,-0.12254205,0.10439218,14.71000000,-23.04000000,-0.01000000
436,0,0.39000000,0.23600000,0.88600000,0.07000000,0.08000000,-0.10000000,-0.11394391,-0.12246302,0.10429339,14.71000000,-23.04000000,-0.01000000
437,0,0.39100000,0.23000000,0.88700000,-0.13000000,-0.04000000,-0.11000000,-0.11407211,-0.12250247,0.10418491,14.71000000,-23.04000000,-0.01000000
438,0,0.38700000,0.23400000,0.88700000,-0.06000000,-0.25000000,0.27000000,-0.11413130,-0.12274908,0.10445125,14.71000000,-23.04000000,-0.01000000
439,0,0.39100000,0.23500000,0.89100000,-0.05000000,-0.09000000,-0.36000000,-0.11418127,-0.12283902,0.10409150,14.71000000,-23.04000000,-0.01000000
440,0,0.39200000,0.23100000,0.89100000,-0.15000000,-0.25000000,-0.16000000,-0.12251465,-0.13672800,0.09520255,14.71000000,-23.04000000,-0.01000000
441,0,0.39200000,0.23100000,0.89000000,0.02000000,0.02000000,-0.24000000,-0.12249213,-0.13670547,0.09493222,14.71000000,-23.04000000,-0.01000000
442,0,0.39300000,0.22900000,0.89000000,0.04000000,-0.07000000,0.30000000,-0.12245173,-0.13677616,0.09523516,14.71000000,-23.04000000,-0.01000000
443,0,0.39100000,0.23800000,0.89100000,0.02000000,0.11000000,-0.05000000,-0.12243185,-0.13666681,0.09518545,14.71000000,-23.04000000,-0.01000000
444,0,0.39500000,0.23800000,0.89400000,0.14000000,0.14000000,0.21000000,-0.12229278,-0.13652774,0.09539406,14.71000000,-23.04000000,-0.01000000
445,0,0.39700000,0.23600000,0.88500000,-0.14000000,0.08000000,0.09000000,-0.12243312,-0.13644755,0.09548428,14.72000000,-23.04000000,-0.01000000
446,0,0.39000000,0.23800000,0.89200000,0.21000000,0.20000000,0.11000000,-0.11076808,-0.12533799,0.10159454,14.72000000,-23.04000000,-0.01000000
447,0,0.39100000,0.24000000,0.88900000,0.07000000,-0.04000000,0.05000000,-0.11069497,-0.12537976,0.10164675,14.72000000,-23.04000000,-0.01000000
448,0,0.39000000,0.23100000,0.89900000,0.15000000,-0.08000000,0.11000000,-0.11054647,-0.12545896,0.10175566,14.72000000,-23.04000000,-0.01000000
449,0,0.39200000,0.23800000,0.89100000,-0.04000000,-0.00000000,-0.23000000,-0.11058584,-0.12545896,0.10152927,14.72000000,-23.04000000,-0.02000000
450,0,0.38900000,0.23200000,0.89500000,0.02000000,-0.04000000,0.14000000,-0.11056605,-0.12549855,0.10166784,14.72000000,-23.04000000,-0.02000000
451,0,0.39300000,0.23500000,0.88800000,0.13000000,0.13000000,-0.09000000,-0.11043589,-0.12536839,0.10157773,14.72000000,-23.04000000,-0.02000000
452,0,0.39200000,0.23700000,0.89300000,0.15000000,-0.02000000,0.04000000,-0.10194239,-0.12650086,0.10384266,14.72000000,-23.04000000,-0.02000000
453,0,0.39500000,0.23500000,0.88900000,-0.05000000,-0.09000000,-0.04000000,-0.10201369,-0.12662921,0.10378562,14.72000000,-23.03000000,-0.01000000
454,0,0.39100000,0.23000000,0.88900000,0.08000000,0.11000000,-0.07000000,-0.10190445,-0.12647900,0.10369003,14.72000000,-23.04000000,-0.01000000
455,0,0.39000000,0.23700000,0.88800000,0.17000000,-0.03000000,0.18000000,-0.10167114,-0.12652017,0.10393707,14.72000000,-23.03000000,-0.01000000
456,0,0.39000000,0.23300000,0.89000000,0.11000000,0.04000000,-0.14000000,-0.10152140,-0.12646572,0.10374650,14.72000000,-23.03000000,-0.01000000
457,0,0.39300000,0.23900000,0.89300000,0.24000000,-0.08000000,0.16000000,-0.10118721,-0.12657712,0.10396929,14.72000000,-23.04000000,-0.01000000
458,0,0.39200000,0.23700000,0.89100000,-0.33000000,0.07000000,-0.09000000,-0.11888337,-0.12282339,0.09914307,14.72000000,-23.03000000,-0.01000000
459,0,0.38900000,0.23200000,0.88700000,0.25000000,0.06000000,-0.27000000,-0.11852810,-0.12273813,0.09875937,14.72000000,-23.03000000,-0.01000000
460,0,0.39100000,0.23600000,0.89100000,-0.07000000,0.08000000,-0.09000000,-0.11862818,-0.12262375,0.09863071,14.72000000,-23.03000000,-0.01000000
461,0,0.38700000,0.22800000,0.89500000,0.13000000,0.01000000,-0.32000000,-0.11844675,-0.12260980,0.09818412,14.72000000,-23.03000000,-0.01000000
462,0,0.39100000,0.23500000,0.88600000,-0.09000000,0.02000000,-0.08000000,-0.11857034,-0.12258233,0.09807427,14.72000000,-23.03000000,-0.01000000
463,0,0.38800000,0.23400000,0.89200000,0.23000000,0.12000000,-0.21000000,-0.11824936,-0.12241487,0.09778120,14.72000000,-23.03000000,-0.01000000
464,0,0.39400000,0.23300000,0.88600000,0.08000000,0.05000000,0.06000000,-0.11387958,-0.11968375,0.10105854,14.72000000,-23.03000000,-0.01000000
465,0,0.39200000,0.23200000,0.89000000,-0.20000000,0.05000000,0.04000000,-0.11416184,-0.11961319,0.10111499,14.72000000,-23.03000000,-0.01000000
466,0,0.39000000,0.23100000,0.89000000,0.02000000,0.12000000,0.25000000,-0.11413526,-0.11945373,0.10144719,14.72000000,-23.03000000,-0.01000000
467,0,0.39100000,0.23000000,0.89000000,0.13000000,-0.39000000,-0.01000000,-0.11396692,-0.11995876,0.10143424,14.72000000,-23.03000000,-0.01000000
468,0,0.38800000,0.23700000,0.88800000,-0.07000000,0.20000000,0.05000000,-0.11405806,-0.11969834,0.10149935,14.72000000,-23.03000000,-0.01000000
469,0,0.39100000,0.23300000,0.89000000,-0.27000000,0.30000000,-0.06000000,-0.11454688,-0.11915522,0.10139072,14.72000000,-23.03000000,-0.01000000
470,0,0.39100000,0.23200000,0.89000000,-0.05000000,-0.29000000,0.06000000,-0.11721428,-0.13462618,0.10459161,14.72000000,-23.03000000,-0.01000000
471,0,0.39000000,0.23300000,0.88700000,0.04000000,0.16000000,0.02000000,-0.11716049,-0.13441102,0.10461851,14.72000000,-23.03000000,-0.01000000
472,0,0.39100000,0.23300000,0.89200000,0.11000000,-0.12000000,-0.11000000,-0.11702127,-0.13456290,0.10447929,14.72000000,-23.03000000,-0.01000000
473,0,0.39100000,0.23600000,0.89000000,0.08000000,-0.01000000,0.05000000,-0.11692281,-0.13457520,0.10454083,14.72000000,-23.03000000,-0.01000000
474,0,0.39000000,0.23500000,0.89200000,-0.15000000,0.09000000,-0.03000000,-0.11710693,-0.13446473,0.10450401,14.72000000,-23.03000000,-0.01000000
475,0,0.39400000,0.22900000,0.88700000,0.18000000,-0.04000000,-0.44000000,-0.11688495,-0.13451406,0.10396140,14.72000000,-23.03000000,-0.01000000
476,0,0.39400000,0.23600000,0.89200000,-0.12000000,-0.11000000,-0.09000000,-0.12338146,-0.14046919,0.09908902,14.72000000,-23.03000000,-0.01000000
477,0,0.38900000,0.23300000,0.89000000,-0.13000000,0.00000000,0.10000000,-0.12354773,-0.14046919,0.09921691,14.72000000,-23.03000000,-0.01000000
478,0,0.39200000,0.23400000,0.89000000,-0.21000000,-0.06000000,-0.08000000,-0.12380840,-0.14054367,0.09911761,14.72000000,-23.03000000,-0.02000000
479,0,0.39000000,0.23200000,0.89000000,0.01000000,-0.12000000,0.08000000,-0.12379612,-0.14069108,0.09921588,14.72000000,-23.03000000,-0.01000000
480,0,0.38600000,0.23200000,0.89300000,-0.06000000,0.09000000,-0.25000000,-0.12387452,-0.14057348,0.09888923,14.72000000,-23.03000000,-0.01000000
481,0,0.38900000,0.23200000,0.88800000,-0.00000000,0.14000000,0.25000000,-0.12387452,-0.14039419,0.09920939,14.72000000,-23.03000000,-0.01000000
482,0,0.38800000,0.23600000,0.89100000,0.05000000,-0.23000000,0.17000000,-0.12114399,-0.15295463,0.10849319,14.72000000,-23.03000000,-0.01000000
483,0,0.39600000,0.23300000,0.89100000,-0.17000000,-0.14000000,0.08000000,-0.12138403,-0.15315231,0.10860615,14.72000000,-23.03000000,-0.01000000
484,0,0.38700000,0.23300000,0.88800000,-0.18000000,-0.06000000,0.06000000,-0.12162202,-0.15323164,0.10868548,14.72000000,-23.03000000,-0.01000000
485,0,0.39200000,0.23100000,0.89200000,0.13000000,-0.09000000,0.08000000,-0.12145513,-0.15334718,0.10878818,14.72000000,-23.03000000,-0.01000000
486,0,0.39100000,0.23400000,0.89100000,0.04000000,0.06000000,-0.05000000,-0.12140400,-0.15327048,0.10872426,14.72000000,-23.03000000,-0.01000000
487,0,0.38900000,0.23100000,0.88800000,-0.08000000,-0.04000000,-0.10000000,-0.12151059,-0.15332378,0.10859103,14.72000000,-23.03000000,-0.01000000
488,0,0.39200000,0.23500000,0.89200000,-0.03000000,0.29000000,0.24000000,-0.12314734,-0.13750185,0.12168504,14.72000000,-23.03000000,-0.01000000
489,0,0.39300000,0.23400000,0.88700000,-0.01000000,-0.23000000,-0.33000000,-0.12316154,-0.13782848,0.12121640,14.72000000,-23.03000000,-0.01000000
490,0,0.39100000,0.23300000,0.88900000,0.03000000,0.03000000,0.20000000,-0.12312178,-0.13778871,0.12148149,14.72000000,-23.03000000,-0.01000000
491,0,0.39200000,0.24000000,0.89300000,-0.12000000,-0.04000000,-0.32000000,-0.12327568,-0.13784001,0.12107107,14.72000000,-23.03000000,-0.01000000
492,0,0.39000000,0.23500000,0.88800000,-0.15000000,0.09000000,0.10000000,-0.12346689,-0.13772529,0.12119854,14.72000000,-23.04000000,-0.01000000
493,0,0.39300000,0.23900000,0.88500000,-0.07000000,-0.16000000,0.02000000,-0.12357699,-0.13797696,0.12123000,14.72000000,-23.04000000,-0.01000000
494,0,0.39000000,0.23500000,0.89100000,0.03000000,0.26000000,-0.47000000,-0.12196535,-0.12400937,0.09598088,14.72000000,-23.04000000,-0.01000000
495,0,0.39200000,0.23800000,0.88900000,0.00000000,0.18000000,-0.11000000,-0.12196535,-0.12377082,0.09583511,14.72000000,-23.04000000,-0.01000000
496,0,0.39000000,0.23400000,0.89600000,0.46000000,0.04000000,0.12000000,-0.12138502,-0.12372036,0.09598649,14.72000000,-23.04000000,-0.01000000
497,0,0.39100000,0.23500000,0.88900000,-0.15000000,0.08000000,0.01000000,-0.12156932,-0.12362207,0.09599878,14.72000000,-23.04000000,-0.01000000
498,0,0.38600000,0.23400000,0.89300000,0.02000000,0.02000000,0.05000000,-0.12154475,-0.12359749,0.09606023,14.72000000,-23.04000000,-0.01000000
499,0,0.39000000,0.23000000,0.89000000,-0.09000000,-0.06000000,-0.12000000,-0.12165580,-0.12367152,0.09591216,14.72000000,-23.04000000,-0.01000000
500,0,0.39400000,0.23600000,0.89300000,0.08000000,0.07000000,0.08000000,-0.11723520,-0.11980350,0.10033275,14.72000000,-23.04000000,-0.01000000
501,0,0.39500000,0.23400000,0.89100000,-0.23000000,-0.01000000,0.14000000,-0.11754911,-0.11981715,0.10052382,14.72000000,-23.04000000,-0.01000000
502,0,0.38800000,0.23100000,0.89100000,0.11000000,0.01000000,0.12000000,-0.11740688,-0.11980422,0.10067899,14.72000000,-23.04000000,-0.01000000
503,0,0.39300000,0.23600000,0.88800000,0.06000000,-0.08000000,0.01000000,-0.11732979,-0.11990700,0.10069184,14.72000000,-23.04000000,-0.01000000
504,0,0.38700000,0.23200000,0.89000000,-0.09000000,-0.28000000,0.16000000,-0.11744638,-0.12026972,0.10089911,14.72000000,-23.04000000,-0.01000000
505,0,0.39000000,0.23800000,0.88900000,0.07000000,-0.19000000,0.02000000,-0.11735402,-0.12052043,0.10092550,14.72000000,-23.04000000,-0.01000000
506,0,0.38900000,0.23100000,0.89100000,-0.27000000,-0.05000000,0.00000000,-0.13191928,-0.12321770,0.10092550,14.72000000,-23.04000000,-0.01000000
507,0,0.39200000,0.23100000,0.89100000,-0.07000000,-0.10000000,-0.11000000,-0.13201510,-0.12335458,0.10077492,14.72000000,-23.04000000,-0.01000000
508,0,0.39200000,0.22700000,0.88900000,0.14000000,-0.10000000,-0.07000000,-0.13183297,-0.12348467,0.10068386,14.72000000,-23.04000000,-0.01000000
509,0,0.38800000,0.23500000,0.89100000,0.03000000,0.02000000,0.11000000,-0.13178658,-0.12345375,0.10085394,14.72000000,-23.04000000,-0.01000000
510,0,0.39300000,0.23300000,0.89100000,-0.02000000,-0.00000000,0.18000000,-0.13181353,-0.12345375,0.10109652,14.72000000,-23.04000000,-0.01000000
511,0,0.39200000,0.23100000,0.89300000,-0.17000000,-0.09000000,0.13000000,-0.13203943,-0.12357334,0.10126927,14.72000000,-23.04000000,-0.01000000
512,0,0.38800000,0.23300000,0.89200000,-0.14000000,0.06000000,0.00000000,-0.13955998,-0.12035025,0.10126927,14.72000000,-23.04000000,-0.01000000
513,0,0.39500000,0.23100000,0.89100000,-0.14000000,0.02000000,-0.25000000,-0.13974171,-0.12032429,0.10094475,14.72000000,-23.03000000,-0.01000000
514,0,0.39100000,0.23400000,0.88700000,-0.06000000,-0.12000000,0.07000000,-0.13981706,-0.12047499,0.10103266,14.72000000,-23.04000000,-0.01000000
515,0,0.39400000,0.23800000,0.89200000,0.07000000,0.08000000,0.14000000,-0.13973052,-0.12037609,0.10120574,14.72000000,-23.04000000,-0.01000000
516,0,0.39100000,0.23300000,0.89000000,-0.06000000,0.25000000,0.09000000,-0.13980438,-0.12006832,0.10131654,14.72000000,-23.04000000,-0.01000000
517,0,0.38500000,0.23500000,0.88700000,0.25000000,-0.12000000,-0.04000000,-0.13947355,-0.12022712,0.10126361,14.72000000,-23.04000000,-0.01000000
518,0,0.39000000,0.23400000,0.88900000,-0.11000000,-0.03000000,0.19000000,-0.14553642,-0.12188063,0.11173584,14.72000000,-23.04000000,-0.01000000
519,0,0.38900000,0.23600000,0.89300000,0.17000000,-0.11000000,-0.11000000,-0.14531632,-0.12202305,0.11159342,14.72000000,-23.04000000,-0.01000000
520,0,0.39100000,0.22700000,0.88700000,-0.06000000,0.02000000,-0.10000000,-0.14539978,-0.12199523,0.11145431,14.72000000,-23.04000000,-0.01000000
521,0,0.38800000,0.23600000,0.89100000,0.08000000,-0.08000000,-0.01000000,-0.14529351,-0.12210150,0.11144103,14.72000000,-23.04000000,-0.01000000
522,0,0.39200000,0.23400000,0.89000000,-0.14000000,-0.19000000,0.05000000,-0.14548245,-0.12235791,0.11150851,14.72000000,-23.04000000,-0.01000000
523,0,0.39300000,0.23600000,0.89100000,0.14000000,0.27000000,0.16000000,-0.14527966,-0.12196682,0.11174027,14.72000000,-23.04000000,-0.01000000
524,0,0.38900000,0.23600000,0.88800000,0.05000000,-0.13000000,0.26000000,-0.14244229,-0.12934397,0.12649456,14.72000000,-23.04000000,-0.01000000
525,0,0.38800000,0.23200000,0.89000000,0.14000000,-0.10000000,-0.12000000,-0.14220219,-0.12951547,0.12628876,14.72000000,-23.04000000,-0.01000000
526,0,0.38800000,0.22800000,0.89100000,-0.09000000,-0.16000000,0.06000000,-0.14232693,-0.12973724,0.12637192,14.72000000,-23.04000000,-0.01000000
527,0,0.39100000,0.23100000,0.89000000,0.07000000,-0.03000000,0.19000000,-0.14223161,-0.12977809,0.12663065,14.72000000,-23.04000000,-0.01000000
528,0,0.39100000,0.23300000,0.88900000,-0.15000000,0.14000000,0.01000000,-0.14243762,-0.12958581,0.12664438,14.72000000,-23.04000000,-0.01000000
529,0,0.39300000,0.22900000,0.88600000,-0.13000000,0.11000000,-0.16000000,-0.14261849,-0.12943277,0.12642178,14.72000000,-23.03000000,-0.01000000
530,0,0.39600000,0.22600000,0.89400000,0.11000000,-0.06000000,-0.21000000,-0.14246642,-0.12951572,0.12613146,14.72000000,-23.04000000,-0.01000000
531,0,0.39300000,0.23400000,0.88700000,-0.03000000,-0.06000000,-0.09000000,-0.14406883,-0.13272054,0.12132422,14.72000000,-23.03000000,-0.01000000
532,0,0.38900000,0.23300000,0.88900000,-0.23000000,-0.04000000,0.07000000,-0.14447168,-0.13279060,0.12144683,14.72000000,-23.03000000,-0.01000000
533,0,0.38800000,0.23200000,0.88900000,0.18000000,-0.15000000,-0.01000000,-0.14416855,-0.13304321,0.12142999,14.72000000,-23.04000000,-0.01000000
534,0,0.39100000,0.23800000,0.88500000,0.02000000,-0.27000000,0.06000000,-0.14413678,-0.13347203,0.12152528,14.72000000,-23.04000000,-0.01000000
535,0,0.39300000,0.23600000,0.89000000,0.02000000,-0.16000000,0.19000000,-0.14410447,-0.13373057,0.12183230,14.72000000,-23.04000000,-0.01000000
536,0,0.39400000,0.23100000,0.89000000,-0.06000000,-0.26000000,0.25000000,-0.14420244,-0.13415509,0.12224050,14.72000000,-23.04000000,-0.01000000
537,0,0.38600000,0.23600000,0.89100000,0.11000000,-0.10000000,0.10000000,-0.13832176,-0.13950116,0.12758657,14.72000000,-23.04000000,-0.01000000
538,0,0.39000000,0.23300000,0.88500000,-0.11000000,0.18000000,0.07000000,-0.13849114,-0.13922400,0.12769435,14.72000000,-23.04000000,-0.01000000
539,0,0.39300000,0.22900000,0.89100000,-0.05000000,-0.16000000,0.00000000,-0.13856481,-0.13945976,0.12769435,14.72000000,-23.04000000,-0.01000000
540,0,0.38800000,0.23200000,0.89200000,-0.02000000,0.16000000,0.11000000,-0.13859396,-0.13922655,0.12785468,14.72000000,-23.04000000,-0.01000000
541,0,0.39500000,0.23300000,0.89000000,-0.02000000,0.08000000,0.07000000,-0.13862277,-0.13911132,0.12795551,14.72000000,-23.04000000,-0.01000000
542,0,0.39200000,0.23700000,0.88700000,0.15000000,-0.10000000,0.19000000,-0.13837489,-0.13927658,0.12826950,14.72000000,-23.04000000,-0.01000000
543,0,0.38800000,0.23200000,0.89000000,0.20000000,0.08000000,-0.08000000,-0.12785975,-0.13507053,0.12406345,14.72000000,-23.04000000,-0.01000000
544,0,0.39600000,0.23500000,0.89400000,-0.10000000,-0.07000000,0.02000000,-0.12799392,-0.13516444,0.12409028,14.72000000,-23.04000000,-0.01000000
545,0,0.38800000,0.23400000,0.89200000,0.03000000,0.14000000,0.28000000,-0.12795487,-0.13498225,0.12445467,14.72000000,-23.04000000,-0.01000000
546,0,0.39200000,0.23600000,0.88800000,-0.16000000,-0.10000000,-0.02000000,-0.12825225,-0.13516811,0.12441750,14.72000000,-23.04000000,-0.01000000
547,0,0.38600000,0.23300000,0.88800000,0.07000000,0.12000000,0.07000000,-0.12815920,-0.13500859,0.12451055,14.72000000,-23.03000000,-0.01000000
548,0,0.38600000,0.23300000,0.89200000,-0.46000000,0.20000000,0.29000000,-0.12897532,-0.13465376,0.12502506,14.72000000,-23.03000000,-0.01000000
549,0,0.38700000,0.23400000,0.89000000,0.11000000,0.11000000,-0.20000000,-0.12314969,-0.12882813,0.11443301,14.72000000,-23.03000000,-0.01000000
550,0,0.38700000,0.23400000,0.89200000,-0.03000000,0.11000000,-0.04000000,-0.12319051,-0.12867844,0.11437858,14.72000000,-23.03000000,-0.01000000
551,0,0.39200000,0.23400000,0.88900000,-0.17000000,0.08000000,0.06000000,-0.12341349,-0.12857351,0.11445728,14.72000000,-23.03000000,-0.01000000
552,0,0.39000000,0.23500000,0.88700000,0.25000000,-0.08000000,-0.06000000,-0.12299236,-0.12870828,0.11435620,14.72000000,-23.03000000,-0.01000000
553,0,0.39500000,0.23200000,0.88800000,-0.14000000,0.21000000,-0.04000000,-0.12318787,-0.12841501,0.11430034,14.72000000,-23.03000000,-0.01000000
554,0,0.38800000,0.23700000,0.89100000,-0.14000000,0.03000000,0.01000000,-0.12344500,-0.12835991,0.11431871,14.72000000,-23.03000000,-0.01000000
555,0,0.39300000,0.23600000,0.89100000,-0.09000000,0.10000000,0.04000000,-0.12823494,-0.12303775,0.11644757,14.72000000,-23.03000000,-0.01000000
556,0,0.38700000,0.23300000,0.88500000,-0.15000000,0.12000000,-0.07000000,-0.12845222,-0.12286393,0.11634618,14.72000000,-23.03000000,-0.01000000
557,0,0.39300000,0.23300000,0.89000000,0.24000000,-0.07000000,0.07000000,-0.12812729,-0.12295870,0.11644095,14.72000000,-23.03000000,-0.01000000
558,0,0.38700000,0.23600000,0.88900000,0.06000000,-0.14000000,-0.17000000,-0.12804784,-0.12314410,0.11621582,14.72000000,-23.03000000,-0.01000000
559,0,0.39200000,0.23500000,0.88900000,0.01000000,0.19000000,-0.16000000,-0.12803484,-0.12289711,0.11600782,14.72000000,-23.03000000,-0.01000000
560,0,0.39300000,0.23300000,0.88900000,-0.04000000,-0.07000000,0.16000000,-0.12810139,-0.12301357,0.11627403,14.72000000,-23.03000000,-0.01000000
561,0,0.39000000,0.24100000,0.89000000,0.02000000,0.40000000,0.07000000,-0.12701888,-0.10136331,0.12006283,14.72000000,-23.03000000,-0.01000000
562,0,0.38900000,0.24000000,0.89200000,-0.03000000,-0.18000000,0.01000000,-0.12705699,-0.10159198,0.12007553,14.72000000,-23.03000000,-0.01000000
563,0,0.39400000,0.23200000,0.88500000,0.01000000,0.04000000,-0.07000000,-0.12704465,-0.10154265,0.11998919,14.72000000,-23.03000000,-0.01000000
564,0,0.39400000,0.23400000,0.89100000,0.12000000,-0.01000000,-0.10000000,-0.12689647,-0.10155499,0.11986570,14.72000000,-23.03000000,-0.01000000
565,0,0.39200000,0.22900000,0.89400000,-0.20000000,0.17000000,-0.07000000,-0.12714044,-0.10134762,0.11978031,14.72000000,-23.03000000,-0.01000000
566,0,0.38800000,0.23700000,0.89000000,0.06000000,0.25000000,-0.03000000,-0.12706361,-0.10102752,0.11974190,14.72000000,-23.03000000,-0.01000000
567,0,0.39000000,0.23200000,0.89300000,0.02000000,-0.03000000,0.13000000,-0.12597622,-0.10265861,0.12680997,14.72000000,-23.03000000,-0.01000000
568,0,0.39000000,0.23500000,0.89400000,0.13000000,0.04000000,-0.11000000,-0.12581240,-0.10260820,0.12667136,14.72000000,-23.03000000,-0.01000000
569,0,0.39000000,0.23200000,0.89000000,-0.06000000,-0.23000000,0.04000000,-0.12588689,-0.10289376,0.12672102,14.72000000,-23.03000000,-0.01000000
570,0,0.39200000,0.23900000,0.88600000,0.02000000,0.05000000,-0.01000000,-0.12586224,-0.10283212,0.12670869,14.72000000,-23.03000000,-0.01000000
571,0,0.39200000,0.23600000,0.89400000,-0.00000000,0.08000000,-0.05000000,-0.12586224,-0.10273408,0.12664741,14.72000000,-23.03000000,-0.01000000
572,0,0.39000000,0.23600000,0.89100000,-0.08000000,-0.05000000,0.08000000,-0.12596076,-0.10279565,0.12674594,14.72000000,-23.03000000,-0.01000000
573,0,0.38800000,0.23700000,0.88300000,-0.03000000,-0.11000000,0.19000000,-0.12762238,-0.10888826,0.13726953,14.72000000,-23.03000000,-0.01000000
574,0,0.38900000,0.23300000,0.89200000,0.30000000,-0.10000000,-0.06000000,-0.12719313,-0.10903135,0.13718368,14.72000000,-23.03000000,-0.01000000
575,0,0.39600000,0.23700000,0.88900000,-0.05000000,0.14000000,-0.00000000,-0.12726250,-0.10883711,0.13718368,14.72000000,-23.03000000,-0.01000000
576,0,0.39400000,0.23800000,0.89000000,-0.14000000,-0.04000000,0.28000000,-0.12745187,-0.10889121,0.13756243,14.72000000,-23.03000000,-0.01000000
577,0,0.38800000,0.23400000,0.89300000,0.11000000,-0.10000000,0.10000000,-0.12730282,-0.10902672,0.13769793,14.72000000,-23.03000000,-0.01000000
578,0,0.38900000,0.23400000,0.88900000,0.03000000,-0.26000000,-0.00000000,-0.12726171,-0.10938293,0.13769793,14.72000000,-23.03000000,-0.01000000
579,0,0.38700000,0.23700000,0.89200000,0.13000000,-0.07000000,0.03000000,-0.12027795,-0.11314342,0.13930957,14.72000000,-23.03000000,-0.01000000
580,0,0.39100000,0.23800000,0.89000000,0.22000000,0.08000000,0.08000000,-0.11995183,-0.11302483,0.13942816,14.72000000,-23.03000000,-0.01000000
581,0,0.39400000,0.23600000,0.89200000,-0.28000000,0.06000000,0.07000000,-0.12034853,-0.11293982,0.13952733,14.72000000,-23.03000000,-0.01000000
582,0,0.39300000,0.24000000,0.89000000,-0.16000000,0.03000000,0.05000000,-0.12056656,-0.11289894,0.13959546,14.72000000,-23.03000000,-0.01000000
583,0,0.39000000,0.23300000,0.88800000,-0.13000000,-0.05000000,0.23000000,-0.12074758,-0.11296857,0.13991573,14.72000000,-23.03000000,-0.01000000
584,0,0.39000000,0.22900000,0.88900000,-0.00000000,-0.00000000,0.07000000,-0.12074758,-0.11296857,0.14001347,14.72000000,-23.03000000,-0.01000000
585,0,0.39300000,0.23500000,0.89300000,0.08000000,-0.13000000,-0.11000000,-0.11647583,-0.11991015,0.13413982,14.72000000,-23.03000000,-0.01000000
586,0,0.38900000,0.23900000,0.89300000,-0.16000000,0.17000000,0.12000000,-0.11670168,-0.11967019,0.13430921,14.72000000,-23.03000000,-0.01000000
587,0,0.39400000,0.23800000,0.88500000,0.05000000,-0.09000000,0.07000000,-0.11663364,-0.11979266,0.13440446,14.72000000,-23.03000000,-0.01000000
588,0,0.39200000,0.23100000,0.88800000,0.05000000,0.14000000,0.10000000,-0.11654572,-0.11954648,0.13458030,14.72000000,-23.03000000,-0.01000000
589,0,0.39100000,0.22900000,0.88800000,-0.04000000,0.09000000,0.06000000,-0.11660313,-0.11941729,0.13466643,14.72000000,-23.03000000,-0.01000000
590,0,0.39200000,0.23300000,0.89000000,0.07000000,0.01000000,0.06000000,-0.11650675,-0.11940352,0.13474905,14.72000000,-23.03000000,-0.01000000
591,0,0.39000000,0.23700000,0.89000000,0.07000000,0.04000000,0.22000000,-0.11271066,-0.11723433,0.14667961,14.72000000,-23.03000000,-0.01000000
592,0,0.39100000,0.22900000,0.89000000,0.22000000,0.08000000,0.20000000,-0.11239755,-0.11712047,0.14696426,14.72000000,-23.02000000,-0.01000000
593,0,0.39300000,0.23500000,0.89400000,0.13000000,0.03000000,0.25000000,-0.11221907,-0.11707928,0.14730748,14.71000000,-23.02000000,-0.01000000
594,0,0.38700000,0.23400000,0.88900000,-0.26000000,-0.17000000,0.04000000,-0.11258780,-0.11732038,0.14736421,14.71000000,-23.02000000,-0.01000000
595,0,0.39300000,0.23000000,0.88900000,-0.14000000,0.09000000,-0.07000000,-0.11278198,-0.11719555,0.14726712,14.71000000,-23.03000000,-0.00000000
596,0,0.39000000,0.23700000,0.88800000,0.17000000,0.12000000,-0.24000000,-0.11253764,-0.11702308,0.14692217,14.71000000,-23.03000000,-0.00000000
597,0,0.39500000,0.23400000,0.89200000,0.08000000,0.15000000,0.07000000,-0.10825667,-0.10899625,0.15066803,14.71000000,-23.03000000,-0.00000000
598,0,0.38800000,0.24000000,0.89200000,0.26000000,0.19000000,0.18000000,-0.10788669,-0.10872588,0.15092417,14.71000000,-23.03000000,-0.00000000
599,0,0.38200000,0.23400000,0.89300000,0.24000000,0.11000000,0.07000000,-0.10755198,-0.10857247,0.15102179,14.71000000,-23.02000000,-0.00000000
600,0,0.38900000,0.23300000,0.89100000,-0.08000000,0.27000000,-0.14000000,-0.10766094,-0.10820475,0.15083112,14.71000000,-23.02000000,-0.00000000
601,0,0.38500000,0.23100000,0.89000000,0.13000000,-0.12000000,-0.10000000,-0.10748382,-0.10836824,0.15069487,14.72000000,-23.02000000,-0.00000000
602,0,0.39000000,0.23700000,0.89000000,-0.08000000,-0.03000000,0.06000000,-0.10759286,-0.10840913,0.15077665,14.72000000,-23.02000000,-0.00000000
603,0,0.39000000,0.23200000,0.89300000,-0.09000000,0.03000000,0.04000000,-0.11242773,-0.10679750,0.15292548,14.72000000,-23.02000000,-0.00000000
604,0,0.39000000,0.23300000,0.89500000,-0.05000000,0.24000000,0.20000000,-0.11249971,-0.10645198,0.15321341,14.72000000,-23.02000000,-0.00000000
605,0,0.38600000,0.22800000,0.88900000,-0.04000000,0.14000000,0.01000000,-0.11255438,-0.10626064,0.15322708,14.72000000,-23.02000000,-0.00000000
606,0,0.39300000,0.23700000,0.88900000,0.12000000,-0.10000000,0.05000000,-0.11239221,-0.10639578,0.15329465,14.72000000,-23.02000000,-0.00000000
607,0,0.39100000,0.23200000,0.89200000,-0.02000000,-0.14000000,0.15000000,-0.11241926,-0.10658512,0.15349752,14.71000000,-23.02000000,-0.01000000
608,0,0.39000000,0.23600000,0.89100000,-0.06000000,0.09000000,0.08000000,-0.11250385,-0.10645823,0.15361031,14.72000000,-23.02000000,-0.01000000
609,0,0.38900000,0.23200000,0.89200000,-0.02000000,-0.16000000,0.13000000,-0.11359597,-0.11519520,0.16070909,14.71000000,-23.02000000,-0.00000000
610,0,0.39400000,0.23600000,0.88900000,-0.02000000,0.12000000,-0.07000000,-0.11362382,-0.11502811,0.16061162,14.71000000,-23.02000000,-0.00000000
611,0,0.39000000,0.23600000,0.88800000,0.09000000,0.19000000,-0.06000000,-0.11350262,-0.11477224,0.16053082,14.72000000,-23.02000000,-0.01000000
612,0,0.38800000,0.23600000,0.89000000,-0.01000000,0.19000000,-0.17000000,-0.11351990,-0.11444393,0.16023707,14.72000000,-23.02000000,-0.01000000
613,0,0.39000000,0.23800000,0.89100000,-0.07000000,-0.04000000,-0.26000000,-0.11363880,-0.11451188,0.15979544,14.72000000,-23.02000000,-0.01000000
614,0,0.39400000,0.23200000,0.89100000,0.21000000,-0.02000000,0.18000000,-0.11333086,-0.11454120,0.16005939,14.72000000,-23.02000000,-0.01000000
615,0,0.39100000,0.23500000,0.89100000,-0.13000000,-0.04000000,-0.15000000,-0.12020413,-0.11665606,0.15212869,14.72000000,-23.02000000,-0.01000000
616,0,0.39000000,0.23600000,0.88700000,-0.13000000,0.01000000,0.13000000,-0.12039318,-0.11664151,0.15231774,14.72000000,-23.02000000,-0.01000000
617,0,0.38400000,0.23400000,0.89100000,0.16000000,-0.21000000,0.08000000,-0.12017420,-0.11692893,0.15242723,14.72000000,-23.02000000,-0.01000000
618,0,0.38800000,0.23500000,0.89000000,-0.16000000,0.12000000,-0.16000000,-0.12039608,-0.11676252,0.15220535,14.72000000,-23.02000000,-0.01000000
619,0,0.39000000,0.23000000,0.89400000,-0.02000000,0.20000000,0.04000000,-0.12042418,-0.11648150,0.15226155,14.72000000,-23.02000000,-0.01000000
620,0,0.38500000,0.23100000,0.88800000,0.25000000,-0.02000000,0.01000000,-0.12007267,-0.11650962,0.15227561,14.71000000,-23.02000000,-0.01000000
621,0,0.38800000,0.23200000,0.89100000,0.04000000,0.13000000,0.29000000,-0.11792928,-0.10954361,0.16781517,14.71000000,-23.02000000,-0.01000000
622,0,0.39000000,0.23400000,0.89000000,0.01000000,0.06000000,-0.22000000,-0.11791530,-0.10945973,0.16750762,14.71000000,-23.02000000,-0.01000000
623,0,0.39700000,0.23100000,0.89300000,0.15000000,-0.10000000,-0.08000000,-0.11771272,-0.10959478,0.16739958,14.72000000,-23.02000000,-0.01000000
624,0,0.38700000,0.23500000,0.89300000,0.17000000,0.03000000,-0.01000000,-0.11746830,-0.10955165,0.16738520,14.71000000,-23.02000000,-0.01000000
625,0,0.39100000,0.23500000,0.88800000,-0.22000000,0.04000000,0.05000000,-0.11778493,-0.10949408,0.16745716,14.71000000,-23.02000000,-0.01000000
626,0,0.38900000,0.23200000,0.89300000,0.00000000,0.06000000,-0.04000000,-0.11778493,-0.10940952,0.16740078,14.71000000,-23.02000000,-0.01000000
627,0,0.39300000,0.23300000,0.88700000,-0.19000000,-0.25000000,-0.14000000,-0.12811958,-0.12300775,0.15978578,14.71000000,-23.02000000,-0.01000000
628,0,0.39000000,0.23500000,0.89100000,-0.05000000,0.18000000,0.13000000,-0.12818956,-0.12275581,0.15996773,14.71000000,-23.02000000,-0.01000000
629,0,0.39200000,0.23600000,0.88900000,0.09000000,-0.10000000,0.36000000,-0.12806600,-0.12289311,0.16046198,14.71000000,-23.02000000,-0.00000000
630,0,0.39000000,0.23200000,0.88800000,-0.12000000,0.03000000,-0.14000000,-0.12822852,-0.12285248,0.16027237,14.71000000,-23.02000000,-0.00000000
631,0,0.39200000,0.23300000,0.89100000,0.14000000,-0.05000000,-0.06000000,-0.12803995,-0.12291982,0.16019156,14.71000000,-23.02000000,-0.00000000
632,0,0.39100000,0.23200000,0.89100000,-0.06000000,-0.11000000,0.08000000,-0.12812075,-0.12306796,0.16029929,14.71000000,-23.02000000,-0.00000000
633,0,0.39600000,0.23400000,0.89100000,0.06000000,-0.03000000,-0.01000000,-0.12488963,-0.12468352,0.15976077,14.71000000,-23.03000000,-0.00000000
634,0,0.38900000,0.23400000,0.88900000,-0.01000000,0.03000000,-0.09000000,-0.12490489,-0.12463775,0.15962345,14.71000000,-23.03000000,-0.00000000
635,0,0.39000000,0.23800000,0.88400000,0.03000000,-0.13000000,-0.02000000,-0.12486287,-0.12481985,0.15959544,14.71000000,-23.03000000,-0.01000000
636,0,0.38700000,0.23400000,0.89000000,-0.09000000,0.13000000,-0.11000000,-0.12498424,-0.12464453,0.15944709,14.71000000,-23.03000000,-0.01000000
637,0,0.38900000,0.23600000,0.89200000,0.05000000,0.18000000,-0.04000000,-0.12491655,-0.12440084,0.15939294,14.71000000,-23.03000000,-0.00000000
638,0,0.39100000,0.23400000,0.89100000,-0.19000000,-0.11000000,-0.05000000,-0.12550093,-0.12473917,0.15923915,14.71000000,-23.03000000,-0.00000000
639,0,0.38800000,0.23500000,0.89300000,0.04000000,0.01000000,-0.05000000,-0.12342000,-0.12421894,0.15663799,14.71000000,-23.02000000,-0.01000000
640,0,0.39200000,0.23400000,0.89000000,-0.09000000,-0.20000000,-0.05000000,-0.12355144,-0.12451102,0.15656497,14.71000000,-23.02000000,-0.01000000
641,0,0.39200000,0.22800000,0.88900000,-0.03000000,0.05000000,-0.14000000,-0.12359318,-0.12444146,0.15637019,14.71000000,-23.02000000,-0.01000000
642,0,0.38900000,0.23400000,0.89100000,-0.26000000,0.02000000,-0.05000000,-0.12394629,-0.12441429,0.15630228,14.71000000,-23.02000000,-0.01000000
643,0,0.39400000,0.23400000,0.88900000,0.15000000,0.15000000,-0.14000000,-0.12374246,-0.12421047,0.15611205,14.72000000,-23.02000000,-0.01000000
644,0,0.38800000,0.23800000,0.89600000,-0.25000000,-0.01000000,-0.05000000,-0.12413284,-0.12422608,0.15603397,14.72000000,-23.02000000,-0.01000000
645,0,0.39000000,0.23600000,0.89500000,-0.13000000,-0.04000000,-0.07000000,-0.13156968,-0.12651434,0.15202952,14.72000000,-23.02000000,-0.01000000
646,0,0.39200000,0.23400000,0.89200000,0.05000000,-0.16000000,0.30000000,-0.13149901,-0.12674049,0.15245355,14.72000000,-23.02000000,-0.01000000
647,0,0.39200000,0.23300000,0.88900000,0.09000000,-0.15000000,-0.02000000,-0.13138511,-0.12693034,0.15242824,14.72000000,-23.03000000,-0.01000000
648,0,0.39200000,0.23600000,0.88900000,0.08000000,-0.15000000,-0.11000000,-0.13128603,-0.12711610,0.15229201,14.72000000,-23.03000000,-0.01000000
649,0,0.38800000,0.23600000,0.89000000,-0.01000000,0.05000000,-0.06000000,-0.13129826,-0.12705496,0.15221863,14.72000000,-23.03000000,-0.01000000
650,0,0.39000000,0.23100000,0.88900000,0.08000000,0.08000000,0.17000000,-0.13119523,-0.12695193,0.15243756,14.72000000,-23.03000000,-0.01000000
651,0,0.39200000,0.23300000,0.88800000,0.20000000,-0.09000000,0.09000000,-0.13093782,-0.12706777,0.15255339,14.72000000,-23.03000000,-0.01000000
652,0,0.38900000,0.23100000,0.89000000,0.33000000,0.30000000,0.22000000,-0.11310727,-0.11085818,0.16444042,14.72000000,-23.03000000,-0.01000000
653,0,0.39600000,0.23700000,0.89300000,-0.11000000,-0.22000000,-0.05000000,-0.11325738,-0.11115839,0.16437220,14.72000000,-23.03000000,-0.01000000
654,0,0.38600000,0.23500000,0.89100000,0.05000000,0.08000000,-0.15000000,-0.11319491,-0.11105844,0.16418478,14.72000000,-23.03000000,-0.01000000
655,0,0.38800000,0.23500000,0.89000000,0.00000000,-0.10000000,0.07000000,-0.11319491,-0.11118142,0.16427087,14.72000000,-23.03000000,-0.01000000
656,0,0.39100000,0.23600000,0.89100000,-0.09000000,0.03000000,0.12000000,-0.11330551,-0.11114456,0.16441834,14.72000000,-23.03000000,-0.01000000
657,0,0.39100000,0.23400000,0.89700000,-0.08000000,-0.26000000,-0.05000000,-0.11340865,-0.11147976,0.16435388,14.72000000,-23.03000000,-0.01000000
658,0,0.38900000,0.23500000,0.89400000,0.15000000,-0.07000000,-0.08000000,-0.10529098,-0.11526800,0.16002446,14.72000000,-23.03000000,-0.01000000
659,0,0.39200000,0.23000000,0.88900000,-0.14000000,-0.13000000,-0.17000000,-0.10547047,-0.11543467,0.15980651,14.72000000,-23.03000000,-0.01000000
660,0,0.39300000,0.23200000,0.89000000,0.03000000,-0.16000000,-0.23000000,-0.10543324,-0.11563324,0.15952106,14.72000000,-23.03000000,-0.01000000
661,0,0.39500000,0.23100000,0.89100000,-0.27000000,0.34000000,-0.10000000,-0.10577142,-0.11520739,0.15939581,14.72000000,-23.03000000,-0.01000000
662,0,0.39200000,0.22700000,0.89100000,-0.03000000,0.15000000,-0.17000000,-0.10580903,-0.11501933,0.15918268,14.72000000,-23.03000000,-0.01000000
663,0,0.39100000,0.23100000,0.89200000,-0.03000000,0.03000000,0.16000000,-0.10584770,-0.11498066,0.15938892,14.72000000,-23.03000000,-0.01000000
664,0,0.39300000,0.23800000,0.88700000,-0.06000000,-0.17000000,0.07000000,-0.10916274,-0.12437329,0.16325647,14.72000000,-23.03000000,-0.01000000
665,0,0.39100000,0.23500000,0.89200000,0.31000000,-0.26000000,-0.06000000,-0.10872561,-0.12473992,0.16317186,14.73000000,-23.03000000,-0.02000000
666,0,0.39100000,0.23400000,0.89400000,0.12000000,0.15000000,0.10000000,-0.10855871,-0.12453130,0.16331094,14.72000000,-23.03000000,-0.01000000
667,0,0.39300000,0.23400000,0.89000000,0.13000000,-0.05000000,0.30000000,-0.10837794,-0.12460083,0.16372811,14.72000000,-23.03000000,-0.01000000
668,0,0.39100000,0.23200000,0.89000000,0.08000000,-0.11000000,0.05000000,-0.10824621,-0.12478195,0.16381044,14.72000000,-23.04000000,-0.01000000
669,0,0.39200000,0.23400000,0.88800000,0.09000000,-0.21000000,-0.09000000,-0.10809224,-0.12514121,0.16365647,14.72000000,-23.04000000,-0.01000000
670,0,0.39300000,0.23400000,0.89100000,0.04000000,0.04000000,-0.14000000,-0.10596639,-0.12301536,0.15621600,14.73000000,-23.04000000,-0.01000000
671,0,0.39400000,0.23500000,0.89300000,-0.05000000,-0.01000000,-0.09000000,-0.10604273,-0.12303063,0.15607860,14.73000000,-23.04000000,-0.02000000
672,0,0.39100000,0.23100000,0.89500000,0.14000000,-0.04000000,-0.25000000,-0.10585242,-0.12308500,0.15573877,14.73000000,-23.04000000,-0.02000000
673,0,0.39000000,0.23700000,0.89100000,0.25000000,-0.25000000,0.05000000,-0.10551456,-0.12342287,0.15580634,14.73000000,-23.04000000,-0.02000000
674,0,0.39000000,0.23500000,0.89300000,-0.08000000,-0.03000000,-0.11000000,-0.10562437,-0.12346405,0.15565534,14.73000000,-23.03000000,-0.02000000
675,0,0.39100000,0.23100000,0.89600000,-0.16000000,-0.12000000,-0.03000000,-0.10585243,-0.12363509,0.15561258,14.73000000,-23.03000000,-0.02000000
676,0,0.39300000,0.23300000,0.89100000,0.09000000,0.07000000,0.19000000,-0.10102170,-0.11987786,0.16581080,14.73000000,-23.03000000,-0.02000000
677,0,0.39600000,0.23400000,0.89400000,0.16000000,0.07000000,-0.01000000,-0.10079482,-0.11977860,0.16579662,14.73000000,-23.03000000,-0.02000000
678,0,0.38900000,0.23700000,0.88500000,-0.02000000,0.09000000,-0.09000000,-0.10082216,-0.11965559,0.16567361,14.73000000,-23.03000000,-0.02000000
679,0,0.39200000,0.23200000,0.89000000,0.21000000,-0.15000000,-0.06000000,-0.10053765,-0.11985881,0.16559232,14.73000000,-23.03000000,-0.02000000
680,0,0.39100000,0.23600000,0.89400000,0.03000000,-0.21000000,-0.08000000,-0.10049678,-0.12014492,0.16548333,14.73000000,-23.03000000,-0.02000000
681,0,0.38500000,0.23700000,0.89100000,0.00000000,0.18000000,-0.05000000,-0.10049678,-0.11978210,0.16538254,14.73000000,-23.03000000,-0.02000000
682,0,0.38800000,0.23100000,0.89400000,-0.05000000,0.10000000,0.11000000,-0.10318999,-0.11439566,0.17130762,14.73000000,-23.03000000,-0.02000000
683,0,0.39700000,0.23600000,0.88900000,-0.10000000,0.13000000,-0.15000000,-0.10332700,-0.11421756,0.17110211,14.73000000,-23.03000000,-0.02000000
684,0,0.39300000,0.23200000,0.89200000,-0.02000000,0.08000000,0.09000000,-0.10335265,-0.11411495,0.17121754,14.73000000,-23.03000000,-0.02000000
685,0,0.39100000,0.23400000,0.89200000,-0.06000000,-0.38000000,0.01000000,-0.10343030,-0.11460676,0.17123049,14.73000000,-23.03000000,-0.02000000
686,0,0.39400000,0.23100000,0.88800000,-0.01000000,-0.04000000,0.08000000,-0.10344347,-0.11465944,0.17133584,14.73000000,-23.03000000,-0.02000000
687,0,0.39500000,0.23100000,0.88700000,0.15000000,-0.07000000,-0.05000000,-0.10318314,-0.11478093,0.17124906,14.73000000,-23.03000000,-0.02000000
688,0,0.38900000,0.22900000,0.88800000,0.19000000,-0.17000000,-0.03000000,-0.09304586,-0.12385113,0.16964844,14.73000000,-23.04000000,-0.02000000
689,0,0.38500000,0.23200000,0.88600000,-0.18000000,0.11000000,-0.07000000,-0.09327530,-0.12371091,0.16955921,14.73000000,-23.04000000,-0.02000000
690,0,0.39000000,0.23800000,0.89000000,0.08000000,-0.11000000,0.03000000,-0.09317462,-0.12384935,0.16959696,14.73000000,-23.04000000,-0.02000000
691,0,0.39100000,0.23700000,0.89000000,-0.00000000,-0.24000000,-0.17000000,-0.09317462,-0.12415973,0.16937710,14.73000000,-23.03000000,-0.02000000
692,0,0.39100000,0.23300000,0.89500000,-0.09000000,-0.03000000,-0.22000000,-0.09328683,-0.12419714,0.16910281,14.73000000,-23.03000000,-0.02000000
693,0,0.38600000,0.22900000,0.89100000,-0.09000000,-0.05000000,-0.06000000,-0.09339872,-0.12425930,0.16902822,14.73000000,-23.03000000,-0.02000000
694,0,0.39100000,0.23700000,0.88900000,-0.11000000,-0.29000000,-0.07000000,-0.09939655,-0.14007176,0.16521142,14.73000000,-23.03000000,-0.02000000
695,0,0.38900000,0.23400000,0.89100000,0.10000000,0.01000000,0.05000000,-0.09925683,-0.14005778,0.16528128,14.73000000,-23.03000000,-0.02000000
696,0,0.39400000,0.23100000,0.88700000,-0.17000000,-0.08000000,-0.03000000,-0.09948552,-0.14016540,0.16524092,14.73000000,-23.03000000,-0.02000000
697,0,0.39100000,0.23300000,0.88900000,0.15000000,0.04000000,-0.16000000,-0.09928077,-0.14011080,0.16502251,14.73000000,-23.03000000,-0.02000000
698,0,0.39100000,0.23300000,0.88800000,-0.23000000,-0.00000000,0.08000000,-0.09960920,-0.14011080,0.16513675,14.73000000,-23.03000000,-0.02000000
699,0,0.39000000,0.23200000,0.89000000,-0.19000000,0.00000000,-0.05000000,-0.09987187,-0.14011080,0.16506763,14.73000000,-23.03000000,-0.02000000
700,0,0.39300000,0.23200000,0.88900000,-0.19000000,-0.05000000,-0.17000000,-0.11022958,-0.14283652,0.15580020,14.73000000,-23.03000000,-0.02000000
701,0,0.39000000,0.23500000,0.89100000,0.15000000,0.31000000,0.03000000,-0.10989819,-0.14215164,0.15586648,14.73000000,-23.03000000,-0.02000000
702,0,0.39100000,0.23900000,0.89000000,0.21000000,-0.06000000,-0.07000000,-0.10960001,-0.14223683,0.15576709,14.73000000,-23.03000000,-0.02000000
703,0,0.39700000,0.23300000,0.89100000,0.08000000,-0.13000000,-0.20000000,-0.10949010,-0.14241543,0.15549232,14.73000000,-23.03000000,-0.02000000
704,0,0.39400000,0.23300000,0.88900000,0.14000000,0.07000000,0.27000000,-0.10912139,-0.14223108,0.15620341,14.73000000,-23.03000000,-0.02000000
705,0,0.38900000,0.23600000,0.89200000,-0.19000000,-0.01000000,-0.13000000,-0.10939986,-0.14224573,0.15601287,14.73000000,-23.03000000,-0.02000000
706,0,0.39300000,0.23800000,0.88600000,0.08000000,0.05000000,-0.14000000,-0.10529274,-0.13967878,0.14882541,14.74000000,-23.03000000,-0.02000000
707,0,0.39200000,0.23200000,0.89400000,-0.02000000,0.04000000,-0.01000000,-0.10532076,-0.13962274,0.14881140,14.74000000,-23.03000000,-0.02000000
708,0,0.39300000,0.23300000,0.89200000,-0.03000000,-0.09000000,0.20000000,-0.10536119,-0.13974403,0.14908093,14.74000000,-23.03000000,-0.02000000
709,0,0.39400000,0.23600000,0.88700000,-0.14000000,-0.15000000,0.19000000,-0.10555434,-0.13995097,0.14934305,14.74000000,-23.03000000,-0.02000000
710,0,0.38900000,0.22900000,0.88800000,-0.12000000,-0.06000000,-0.11000000,-0.10572947,-0.14003853,0.14918251,14.73000000,-23.03000000,-0.02000000
711,0,0.39200000,0.23200000,0.88800000,0.09000000,0.18000000,-0.04000000,-0.10559370,-0.13976699,0.14912217,14.73000000,-23.03000000,-0.02000000
712,0,0.39100000,0.23800000,0.89100000,-0.15000000,-0.08000000,0.02000000,-0.11363240,-0.14405430,0.15019399,14.73000000,-23.03000000,-0.02000000
713,0,0.38900000,0.23300000,0.88500000,-0.03000000,0.06000000,-0.05000000,-0.11367451,-0.14397009,0.15012382,14.73000000,-23.03000000,-0.02000000
714,0,0.39000000,0.23600000,0.89200000,0.20000000,0.03000000,-0.03000000,-0.11341304,-0.14393087,0.15008460,14.73000000,-23.03000000,-0.02000000
715,0,0.39100000,0.23800000,0.88600000,-0.02000000,0.08000000,-0.17000000,-0.11343935,-0.14382560,0.14986089,14.73000000,-23.03000000,-0.02000000
716,0,0.39500000,0.23500000,0.88800000,-0.03000000,0.16000000,-0.14000000,-0.11347802,-0.14361936,0.14968043,14.73000000,-23.03000000,-0.02000000
717,0,0.39000000,0.23100000,0.88800000,0.12000000,-0.08000000,-0.22000000,-0.11331768,-0.14372625,0.14938647,14.73000000,-23.03000000,-0.02000000
718,0,0.39000000,0.23600000,0.89000000,0.17000000,0.15000000,-0.07000000,-0.10401625,-0.13551911,0.14555647,14.73000000,-23.03000000,-0.02000000
719,0,0.38900000,0.23300000,0.89100000,-0.19000000,-0.02000000,-0.03000000,-0.10427185,-0.13554601,0.14551611,14.73000000,-23.03000000,-0.02000000
720,0,0.39400000,0.23900000,0.89100000,-0.04000000,0.29000000,-0.17000000,-0.10432402,-0.13516778,0.14529439,14.73000000,-23.03000000,-0.02000000
721,0,0.38900000,0.23000000,0.89100000,-0.04000000,0.06000000,0.04000000,-0.10437562,-0.13509038,0.14534598,14.73000000,-23.03000000,-0.02000000
722,0,0.39000000,0.23000000,0.88700000,0.00000000,-0.09000000,0.11000000,-0.10437562,-0.13520841,0.14549024,14.73000000,-23.03000000,-0.02000000
723,0,0.39400000,0.23200000,0.88900000,-0.08000000,-0.18000000,0.09000000,-0.10448621,-0.13545725,0.14561466,14.73000000,-23.03000000,-0.02000000
724,0,0.39200000,0.23600000,0.89200000,-0.02000000,0.10000000,0.02000000,-0.10556468,-0.13006490,0.14669313,14.73000000,-23.03000000,-0.02000000
725,0,0.39000000,0.23000000,0.89100000,0.06000000,0.02000000,-0.12000000,-0.10548398,-0.13003800,0.14653173,14.73000000,-23.03000000,-0.02000000
726,0,0.39100000,0.23600000,0.89500000,-0.38000000,0.15000000,-0.19000000,-0.10598150,-0.12984162,0.14628297,14.73000000,-23.03000000,-0.02000000
727,0,0.39000000,0.23300000,0.88900000,-0.03000000,-0.09000000,0.11000000,-0.10602005,-0.12995728,0.14642434,14.73000000,-23.03000000,-0.02000000
728,0,0.39100000,0.23600000,0.88700000,-0.25000000,0.11000000,-0.08000000,-0.10634385,-0.12981481,0.14632072,14.73000000,-23.03000000,-0.02000000
729,0,0.38900000,0.23600000,0.88700000,-0.08000000,0.02000000,0.12000000,-0.10644773,-0.12978884,0.14647655,14.73000000,-23.03000000,-0.02000000
730,0,0.38800000,0.23000000,0.89200000,0.09000000,0.31000000,-0.11000000,-0.10156737,-0.11297870,0.14051166,14.73000000,-23.03000000,-0.02000000
731,0,0.39000000,0.23700000,0.88700000,0.18000000,0.01000000,0.14000000,-0.10132218,-0.11296508,0.14070236,14.73000000,-23.03000000,-0.02000000
732,0,0.38800000,0.23300000,0.89100000,0.11000000,0.09000000,0.03000000,-0.10117150,-0.11284179,0.14074346,14.73000000,-23.03000000,-0.02000000
733,0,0.39000000,0.23500000,0.88800000,-0.08000000,-0.05000000,0.06000000,-0.10127803,-0.11290838,0.14082336,14.73000000,-23.03000000,-0.02000000
734,0,0.39000000,0.23200000,0.89200000,-0.15000000,-0.09000000,0.06000000,-0.10147710,-0.11302782,0.14090299,14.73000000,-23.03000000,-0.02000000
735,0,0.39400000,0.23200000,0.89100000,0.21000000,-0.14000000,0.18000000,-0.10119139,-0.11321829,0.14114788,14.73000000,-23.03000000,-0.02000000
736,0,0.39100000,0.23500000,0.89300000,-0.14000000,-0.21000000,-0.16000000,-0.10884916,-0.12470494,0.13239615,14.73000000,-23.03000000,-0.02000000
737,0,0.39000000,0.23600000,0.89200000,-0.12000000,0.20000000,-0.26000000,-0.10902112,-0.12441834,0.13202357,14.73000000,-23.02000000,-0.02000000
738,0,0.38900000,0.22700000,0.89500000,0.25000000,-0.02000000,-0.05000000,-0.10869231,-0.12444465,0.13195781,14.73000000,-23.02000000,-0.02000000
739,0,0.38900000,0.23200000,0.89000000,-0.09000000,0.32000000,-0.25000000,-0.10881154,-0.12402072,0.13162662,14.73000000,-23.02000000,-0.02000000
740,0,0.39200000,0.23700000,0.88900000,0.03000000,-0.21000000,-0.02000000,-0.10877156,-0.12430057,0.13159996,14.73000000,-23.02000000,-0.02000000
741,0,0.39200000,0.23700000,0.88900000,0.02000000,0.01000000,-0.35000000,-0.10874421,-0.12428690,0.13112120,14.73000000,-23.02000000,-0.02000000
742,0,0.39000000,0.23400000,0.89100000,0.07000000,0.02000000,-0.04000000,-0.10499188,-0.12321480,0.12897701,14.73000000,-23.02000000,-0.02000000
743,0,0.39500000,0.23000000,0.89100000,0.27000000,0.41000000,-0.09000000,-0.10465009,-0.12269580,0.12886308,14.73000000,-23.02000000,-0.02000000
744,0,0.39900000,0.23500000,0.88800000,-0.01000000,-0.03000000,-0.08000000,-0.10466243,-0.12273281,0.12876439,14.73000000,-23.02000000,-0.02000000
745,0,0.38900000,0.23400000,0.89000000,-0.14000000,-0.10000000,0.02000000,-0.10483354,-0.12285503,0.12878883,14.73000000,-23.02000000,-0.02000000
746,0,0.39200000,0.23300000,0.88500000,-0.17000000,-0.05000000,0.11000000,-0.10504100,-0.12291605,0.12892307,14.73000000,-23.02000000,-0.02000000
747,0,0.39300000,0.23200000,0.88900000,0.01000000,-0.07000000,-0.08000000,-0.10502831,-0.12300486,0.12882157,14.73000000,-23.02000000,-0.02000000
748,0,0.39100000,0.23300000,0.88900000,-0.14000000,-0.18000000,0.22000000,-0.11268664,-0.13285129,0.14085609,14.73000000,-23.02000000,-0.02000000
749,0,0.38900000,0.23500000,0.89800000,-0.03000000,0.13000000,-0.12000000,-0.11272799,-0.13267213,0.14069071,14.73000000,-23.02000000,-0.02000000
750,0,0.39300000,0.23300000,0.88900000,0.05000000,0.10000000,-0.01000000,-0.11266561,-0.13254738,0.14067824,14.73000000,-23.02000000,-0.02000000
751,0,0.39100000,0.23300000,0.89000000,-0.22000000,-0.15000000,0.03000000,-0.11293571,-0.13273153,0.14071507,14.73000000,-23.02000000,-0.02000000
752,0,0.39100000,0.23000000,0.89400000,-0.03000000,0.10000000,-0.16000000,-0.11297295,-0.13260740,0.14051646,14.73000000,-23.02000000,-0.02000000
753,0,0.39100000,0.23600000,0.88700000,0.12000000,0.03000000,-0.04000000,-0.11282211,-0.13256969,0.14046618,14.73000000,-23.02000000,-0.02000000
754,0,0.38700000,0.23800000,0.88800000,-0.01000000,0.10000000,0.25000000,-0.11339409,-0.12684985,0.15476578,14.73000000,-23.02000000,-0.02000000
755,0,0.39200000,0.23200000,0.88600000,0.18000000,-0.06000000,0.02000000,-0.11313117,-0.12693749,0.15479499,14.73000000,-23.02000000,-0.02000000
756,0,0.39200000,0.22900000,0.88900000,-0.01000000,-0.13000000,0.04000000,-0.11316029,-0.12731604,0.15491147,14.73000000,-23.02000000,-0.02000000
757,0,0.39300000,0.23000000,0.89500000,-0.26000000,0.01000000,0.29000000,-0.11418598,-0.12727659,0.15605551,14.73000000,-23.02000000,-0.02000000
758,0,0.38800000,0.23500000,0.89200000,-0.06000000,-0.09000000,-0.20000000,-0.11426762,-0.12739904,0.15578340,14.73000000,-23.02000000,-0.02000000
759,0,0.38700000,0.23500000,0.89200000,-0.11000000,-0.08000000,0.20000000,-0.11494890,-0.12789452,0.15702210,14.73000000,-23.02000000,-0.02000000
760,0,0.38800000,0.23500000,0.89000000,0.03000000,0.03000000,0.22000000,-0.11367518,-0.12662079,0.16636274,14.73000000,-23.02000000,-0.02000000
761,0,0.39200000,0.23600000,0.89000000,-0.20000000,-0.15000000,0.06000000,-0.11394986,-0.12682680,0.16644515,14.73000000,-23.02000000,-0.02000000
762,0,0.39200000,0.23300000,0.88800000,0.19000000,0.13000000,-0.03000000,-0.11370037,-0.12665610,0.16640575,14.73000000,-23.02000000,-0.02000000
763,0,0.38700000,0.23300000,0.89100000,0.09000000,-0.19000000,0.14000000,-0.11355415,-0.12696479,0.16663321,14.73000000,-23.02000000,-0.02000000
764,0,0.39000000,0.23300000,0.88700000,-0.03000000,0.18000000,-0.19000000,-0.11373091,-0.12590421,0.16551370,14.73000000,-23.02000000,-0.02000000
765,0,0.39600000,0.23800000,0.88800000,0.09000000,-0.04000000,-0.15000000,-0.11361881,-0.12595403,0.16532686,14.73000000,-23.02000000,-0.02000000
766,0,0.38700000,0.23000000,0.89300000,-0.20000000,-0.27000000,-0.02000000,-0.12348640,-0.13927528,0.16434010,14.73000000,-23.02000000,-0.02000000
767,0,0.39400000,0.23400000,0.89500000,0.03000000,0.07000000,0.08000000,-0.12345019,-0.13919079,0.16443666,14.73000000,-23.02000000,-0.01000000
768,0,0.39600000,0.23600000,0.89200000,-0.03000000,-0.07000000,0.12000000,-0.12348428,-0.13927033,0.16457300,14.73000000,-23.02000000,-0.01000000
769,0,0.38700000,0.23100000,0.89000000,0.06000000,-0.07000000,-0.24000000,-0.12337774,-0.13939462,0.16414686,14.72000000,-23.02000000,-0.01000000
770,0,0.39200000,0.23500000,0.89100000,-0.02000000,-0.11000000,-0.30000000,-0.12341059,-0.13957525,0.16365423,14.72000000,-23.02000000,-0.02000000
771,0,0.38900000,0.23400000,0.88800000,-0.23000000,0.19000000,-0.19000000,-0.12370640,-0.13933088,0.16340986,14.73000000,-23.02000000,-0.02000000
772,0,0.38700000,0.23200000,0.89200000,-0.00000000,-0.03000000,-0.05000000,-0.12370640,-0.14104802,0.16054797,14.73000000,-23.02000000,-0.02000000
773,0,0.39100000,0.23500000,0.88700000,-0.08000000,0.13000000,0.02000000,-0.12381291,-0.14087494,0.16057459,14.73000000,-23.02000000,-0.02000000
774,0,0.39100000,0.23900000,0.89100000,0.21000000,0.02000000,0.01000000,-0.12356706,-0.14085152,0.16058630,14.73000000,-23.02000000,-0.02000000
775,0,0.39200000,0.23500000,0.89200000,-0.03000000,0.05000000,-0.22000000,-0.12360116,-0.14079468,0.16033619,14.73000000,-23.02000000,-0.02000000
776,0,0.39000000,0.23200000,0.89100000,-0.14000000,0.10000000,0.06000000,-0.12376002,-0.14068120,0.16040427,14.73000000,-23.01000000,-0.02000000
777,0,0.39100000,0.23200000,0.88900000,0.09000000,-0.12000000,-0.13000000,-0.12364657,-0.14083248,0.16024039,14.73000000,-23.01000000,-0.02000000
778,0,0.39200000,0.22900000,0.88700000,-0.01000000,0.05000000,0.04000000,-0.12365926,-0.14076902,0.16029116,14.73000000,-23.01000000,-0.02000000
779,0,0.38900000,0.23100000,0.89100000,0.21000000,0.03000000,0.15000000,-0.11225592,-0.13913997,0.16843640,14.73000000,-23.01000000,-0.02000000
780,0,0.39200000,0.23300000,0.89400000,0.03000000,0.06000000,0.19000000,-0.11222288,-0.13907387,0.16864570,14.73000000,-23.01000000,-0.02000000
781,0,0.39000000,0.23400000,0.88600000,-0.07000000,-0.19000000,0.06000000,-0.11229293,-0.13926402,0.16870575,14.73000000,-23.01000000,-0.02000000
782,0,0.39000000,0.23100000,0.89500000,0.02000000,-0.16000000,-0.06000000,-0.11227286,-0.13942455,0.16864555,14.73000000,-23.01000000,-0.02000000
783,0,0.38800000,0.23400000,0.89000000,-0.06000000,0.15000000,0.01000000,-0.11233352,-0.13927290,0.16865566,14.73000000,-23.01000000,-0.02000000
784,0,0.39000000,0.23400000,0.89100000,-0.06000000,-0.14000000,0.12000000,-0.11239339,-0.13941261,0.16877540,14.73000000,-23.01000000,-0.02000000
785,0,0.38900000,0.24100000,0.88700000,-0.15000000,0.21000000,0.24000000,-0.12071884,-0.12775698,0.18209612,14.73000000,-23.01000000,-0.02000000
786,0,0.38500000,0.23100000,0.89100000,0.25000000,0.45000000,0.06000000,-0.12045185,-0.12727639,0.18216020,14.73000000,-23.01000000,-0.01000000
787,0,0.39200000,0.23200000,0.89300000,-0.57000000,-0.63000000,-0.10000000,-0.12106440,-0.12795342,0.18205273,14.73000000,-23.01000000,-0.02000000
788,0,0.39100000,0.23000000,0.89100000,0.04000000,-0.20000000,0.01000000,-0.12102207,-0.12816506,0.18206332,14.73000000,-23.01000000,-0.02000000
789,0,0.39300000,0.23100000,0.89200000,0.15000000,-0.22000000,-0.08000000,-0.12087007,-0.12838801,0.18198225,14.73000000,-23.01000000,-0.02000000
790,0,0.39100000,0.24000000,0.88700000,0.01000000,0.00000000,-0.09000000,-0.12085866,-0.12838801,0.18187963,14.73000000,-23.01000000,-0.02000000
791,0,0.39700000,0.23400000,0.89500000,-0.06000000,-0.11000000,0.15000000,-0.12421768,-0.13454621,0.19027717,14.73000000,-23.01000000,-0.02000000
792,0,0.38900000,0.23200000,0.89200000,0.20000000,0.21000000,-0.17000000,-0.12400762,-0.13432564,0.19009862,14.73000000,-23.01000000,-0.02000000
793,0,0.38900000,0.23100000,0.88800000,0.05000000,-0.04000000,-0.10000000,-0.12395652,-0.13436652,0.18999642,14.73000000,-23.01000000,-0.02000000
794,0,0.38800000,0.23900000,0.88700000,0.33000000,-0.10000000,0.05000000,-0.12362808,-0.13446604,0.19004618,14.73000000,-23.01000000,-0.02000000
795,0,0.38700000,0.23200000,0.89000000,0.08000000,0.29000000,0.05000000,-0.12354768,-0.13417458,0.19009643,14.73000000,-23.01000000,-0.02000000
796,0,0.39100000,0.23800000,0.89300000,-0.30000000,0.09000000,0.06000000,-0.12384719,-0.13408473,0.19015634,14.72000000,-23.01000000,-0.01000000
797,0,0.38800000,0.23400000,0.88900000,0.22000000,0.01000000,0.08000000,-0.11163947,-0.13352983,0.19459551,14.72000000,-23.01000000,-0.01000000
798,0,0.39200000,0.23500000,0.88900000,0.05000000,-0.19000000,-0.03000000,-0.11158727,-0.13372817,0.19456419,14.72000000,-23.00000000,-0.01000000
799,0,0.39000000,0.23300000,0.89100000,0.28000000,0.13000000,-0.22000000,-0.11130833,-0.13359867,0.19434502,14.73000000,-23.00000000,-0.01000000
800,0,0.39500000,0.23600000,0.88900000,0.24000000,-0.01000000,0.07000000,-0.11106003,-0.13360901,0.19441744,14.73000000,-23.00000000,-0.01000000
801,0,0.38900000,0.24000000,0.88800000,-0.11000000,0.04000000,-0.15000000,-0.11117050,-0.13356884,0.19426680,14.73000000,-23.00000000,-0.02000000
802,0,0.38600000,0.24200000,0.89500000,0.10000000,-0.06000000,0.15000000,-0.11107100,-0.13362854,0.19441605,14.73000000,-23.00000000,-0.01000000
803,0,0.39400000,0.23100000,0.89000000,0.17000000,-0.16000000,-0.00000000,-0.10161190,-0.14253122,0.19441605,14.73000000,-23.00000000,-0.01000000
804,0,0.39600000,0.23600000,0.88500000,-0.16000000,0.03000000,-0.07000000,-0.10177900,-0.14249989,0.19434294,14.73000000,-23.00000000,-0.01000000
805,0,0.39200000,0.23400000,0.89200000,0.09000000,-0.22000000,-0.00000000,-0.10168949,-0.14271869,0.19434294,14.73000000,-23.00000000,-0.01000000
806,0,0.39300000,0.23400000,0.89400000,0.05000000,-0.04000000,-0.16000000,-0.10163960,-0.14275860,0.19418328,14.73000000,-23.00000000,-0.02000000
807,0,0.38700000,0.23400000,0.89200000,0.14000000,0.43000000,-0.11000000,-0.10150073,-0.14233208,0.19407417,14.73000000,-23.00000000,-0.01000000
808,0,0.38800000,0.23900000,0.88700000,0.49000000,0.12000000,-0.08000000,-0.10101410,-0.14221290,0.19399472,14.73000000,-23.00000000,-0.01000000
809,0,0.38900000,0.23400000,0.89200000,-0.12000000,-0.29000000,-0.13000000,-0.10777903,-0.15856148,0.18666605,14.73000000,-23.00000000,-0.01000000
810,0,0.39000000,0.23000000,0.89000000,-0.45000000,-0.21000000,-0.10000000,-0.10824728,-0.15878000,0.18656199,14.73000000,-23.01000000,-0.01000000
811,0,0.38700000,0.23100000,0.88900000,0.03000000,0.09000000,0.18000000,-0.10821753,-0.15869073,0.18674054,14.73000000,-23.01000000,-0.01000000
812,0,0.39200000,0.23100000,0.88700000,-0.28000000,0.12000000,0.10000000,-0.10849687,-0.15857101,0.18684030,14.72000000,-23.01000000,-0.01000000
813,0,0.39300000,0.23500000,0.88800000,0.01000000,0.11000000,-0.07000000,-0.10848689,-0.15846124,0.18677045,14.72000000,-23.01000000,-0.01000000
814,0,0.39000000,0.23600000,0.88500000,0.06000000,-0.07000000,-0.12000000,-0.10842707,-0.15853103,0.18665082,14.73000000,-23.01000000,-0.01000000
815,0,0.39000000,0.23500000,0.89100000,0.03000000,-0.25000000,-0.18000000,-0.10676066,-0.17241780,0.17665234,14.73000000,-23.01000000,-0.01000000
816,0,0.39000000,0.23500000,0.89100000,0.20000000,0.16000000,0.01000000,-0.10654353,-0.17224410,0.17666320,14.73000000,-23.01000000,-0.02000000
817,0,0.38700000,0.23300000,0.88700000,-0.07000000,-0.13000000,0.04000000,-0.10661382,-0.17237464,0.17670336,14.73000000,-23.01000000,-0.02000000
818,0,0.39400000,0.23000000,0.88900000,-0.03000000,-0.14000000,-0.11000000,-0.10664371,-0.17251411,0.17659378,14.73000000,-23.01000000,-0.02000000
819,0,0.39300000,0.23400000,0.88600000,-0.12000000,0.00000000,0.05000000,-0.10676225,-0.17251411,0.17664317,14.73000000,-23.01000000,-0.02000000
820,0,0.39600000,0.23400000,0.88600000,0.27000000,-0.13000000,0.14000000,-0.10649546,-0.17264256,0.17678150,14.73000000,-23.01000000,-0.02000000
821,0,0.39800000,0.23300000,0.88900000,0.09000000,-0.32000000,-0.11000000,-0.10140992,-0.19072449,0.17056584,14.73000000,-23.01000000,-0.02000000
822,0,0.39000000,0.23400000,0.89000000,0.00000000,0.03000000,-0.11000000,-0.10140992,-0.19069296,0.17045025,14.73000000,-23.01000000,-0.02000000
823,0,0.39000000,0.23100000,0.89200000,0.09000000,0.09000000,-0.11000000,-0.10131925,-0.19060229,0.17033944,14.73000000,-23.01000000,-0.02000000
824,0,0.39100000,0.23300000,0.89500000,0.21000000,-0.22000000,-0.25000000,-0.10111070,-0.19082078,0.17009116,14.73000000,-23.01000000,-0.02000000
825,0,0.38800000,0.23500000,0.89100000,0.10000000,0.02000000,0.07000000,-0.10101174,-0.19080099,0.17016043,14.73000000,-23.01000000,-0.02000000
