Measurement Count,IMU_MODE,Accel_X,Accel_Y,Accel_Z,Gyro_X,Gyro_Y,Gyro_Z,X_DEL_ANG,Y_DEL_ANG,Z_DEL_ANG,ROLL,PITCH,HEADING
1,0,-0.83800000,-0.03600000,0.53300000,0.24000000,-0.26000000,-0.22000000,0.00024109,-0.00026119,-0.00022100,-3.89000000,56.19000000,0.02000000
2,0,-0.84500000,-0.03500000,0.53700000,-0.08000000,0.05000000,0.12000000,0.00015981,-0.00021039,-0.00009908,-4.03000000,57.48000000,-0.11000000
3,0,-0.84100000,-0.04000000,0.53700000,-0.01000000,0.03000000,0.07000000,0.00014997,-0.00018085,-0.00003017,-3.98000000,57.45000000,-0.06000000
4,0,-0.84500000,-0.03400000,0.53400000,0.05000000,-0.19000000,-0.01000000,0.00019903,-0.00036728,-0.00003998,-3.83000000,57.50000000,0.07000000
5,0,-0.84200000,-0.04100000,0.53800000,-0.15000000,-0.13000000,0.13000000,0.00004963,-0.00049675,0.00008950,-3.82000000,57.47000000,0.08000000
6,0,-0.84300000,-0.02900000,0.53400000,-0.22000000,-0.25000000,0.16000000,-0.00016964,-0.00074593,0.00024897,-3.74000000,57.48000000,0.14000000
7,0,-0.84400000,-0.03500000,0.53800000,0.02000000,-0.15000000,-0.02000000,-0.00014908,-0.00090012,0.00022841,-3.72000000,57.50000000,0.16000000
8,0,-0.84200000,-0.03600000,0.53100000,0.15000000,-0.28000000,-0.05000000,0.00000346,-0.00118486,0.00017756,-3.73000000,57.50000000,0.15000000
9,0,-0.84700000,-0.03000000,0.53300000,0.24000000,-0.08000000,0.02000000,0.00025417,-0.00126843,0.00019846,-3.74000000,57.50000000,0.15000000
10,0,-0.84400000,-0.03500000,0.54000000,0.29000000,0.15000000,-0.05000000,0.00055061,-0.00111510,0.00014735,-3.73000000,57.50000000,0.15000000
11,0,-0.83800000,-0.04200000,0.53500000,0.04000000,-0.04000000,0.04000000,0.00059023,-0.00115472,0.00018697,-3.74000000,57.51000000,0.14000000
12,0,-0.84400000,-0.03800000,0.53700000,0.03000000,0.34000000,0.17000000,0.00062074,-0.00080896,0.00035985,-3.75000000,57.50000000,0.13000000
13,0,-0.84800000,-0.03700000,0.54000000,-0.07000000,-0.02000000,0.08000000,0.00054948,-0.00082931,0.00044128,-3.73000000,57.49000000,0.15000000
14,0,-0.84100000,-0.03500000,0.53700000,-0.12000000,-0.06000000,-0.04000000,0.00041537,-0.00089637,0.00039658,-3.71000000,57.49000000,0.16000000
15,0,-0.84500000,-0.03800000,0.53600000,0.02000000,-0.02000000,-0.31000000,0.00043865,-0.00091965,0.00003579,-3.71000000,57.48000000,0.16000000
16,0,-0.84100000,-0.03200000,0.54200000,-0.10000000,0.28000000,0.01000000,0.00033278,-0.00062321,0.00004638,-3.69000000,57.47000000,0.18000000
17,0,-0.84400000,-0.03300000,0.53200000,0.03000000,0.01000000,-0.05000000,0.00036637,-0.00061202,-0.00000961,-3.73000000,57.46000000,0.15000000
18,0,-0.84500000,-0.03300000,0.53300000,0.30000000,-0.14000000,0.13000000,0.00069864,-0.00076708,0.00013438,-3.72000000,57.46000000,0.15000000
19,0,-0.84200000,-0.03300000,0.53300000,-0.10000000,0.09000000,0.10000000,0.00058738,-0.00066694,0.00024563,-3.73000000,57.47000000,0.14000000
20,0,-0.84300000,-0.03800000,0.53700000,-0.07000000,0.04000000,-0.01000000,0.00050814,-0.00062166,0.00023431,-3.74000000,57.47000000,0.14000000
21,0,-0.84400000,-0.03600000,0.53800000,-0.00000000,-0.05000000,0.00000000,0.00050814,-0.00067566,0.00023431,-3.74000000,57.47000000,0.14000000
22,0,-0.84500000,-0.03400000,0.53700000,0.03000000,0.08000000,-0.04000000,0.00054053,-0.00058928,0.00019113,-3.74000000,57.47000000,0.14000000
23,0,-0.84800000,-0.03200000,0.53300000,0.08000000,0.25000000,0.03000000,0.00062741,-0.00031776,0.00022371,-3.73000000,57.47000000,0.15000000
24,0,-0.84200000,-0.03300000,0.53500000,-0.15000000,0.07000000,-0.04000000,0.00046893,-0.00024380,0.00018145,-3.73000000,57.48000000,0.14000000
25,0,-0.84300000,-0.03500000,0.53600000,0.10000000,-0.23000000,-0.22000000,0.00058966,-0.00052146,-0.00008414,-3.73000000,57.48000000,0.14000000
26,0,-0.84100000,-0.03500000,0.53800000,-0.04000000,0.15000000,0.21000000,0.00054374,-0.00034928,0.00015691,-3.72000000,57.48000000,0.15000000
27,0,-0.84300000,-0.03200000,0.53800000,-0.29000000,-0.05000000,0.10000000,0.00022186,-0.00040478,0.00026790,-3.71000000,57.48000000,0.16000000
28,0,-0.84300000,-0.03100000,0.53300000,0.04000000,0.27000000,0.13000000,0.00094304,0.00446320,0.00261174,-3.70000000,57.48000000,0.17000000
29,0,-0.84000000,-0.03600000,0.53400000,0.01000000,0.01000000,-0.01000000,0.00095472,0.00447488,0.00260007,-3.70000000,57.48000000,0.17000000
30,0,-0.84800000,-0.03500000,0.53200000,-0.02000000,-0.13000000,0.24000000,0.00093112,0.00432147,0.00288327,-3.70000000,57.48000000,0.17000000
31,0,-0.84500000,-0.03100000,0.54000000,-0.17000000,-0.01000000,-0.05000000,0.00071961,0.00430903,0.00282107,-3.70000000,57.48000000,0.17000000
32,0,-0.84000000,-0.04000000,0.53900000,-0.15000000,0.19000000,-0.08000000,0.00055516,0.00451734,0.00273336,-3.71000000,57.48000000,0.16000000
33,0,-0.84900000,-0.03400000,0.53700000,-0.10000000,-0.01000000,0.21000000,0.00044600,0.00450642,0.00296259,-3.71000000,57.48000000,0.16000000
34,0,-0.84300000,-0.03100000,0.53900000,-0.01000000,0.15000000,-0.06000000,-0.00009645,0.01264322,-0.00029213,-3.71000000,57.48000000,0.16000000
35,0,-0.84400000,-0.03400000,0.53600000,0.05000000,-0.18000000,0.15000000,-0.00004024,0.01244086,-0.00012349,-3.71000000,57.48000000,0.16000000
36,0,-0.84300000,-0.03600000,0.53600000,0.02000000,0.04000000,0.14000000,-0.00002017,0.01248100,0.00001701,-3.72000000,57.48000000,0.15000000
37,0,-0.84100000,-0.03500000,0.53700000,0.01000000,0.14000000,-0.11000000,-0.00001026,0.01261974,-0.00009200,-3.72000000,57.48000000,0.15000000
38,0,-0.84300000,-0.03900000,0.53500000,0.03000000,0.11000000,-0.07000000,0.00001953,0.01272898,-0.00016151,-3.73000000,57.48000000,0.15000000
39,0,-0.84200000,-0.03700000,0.53700000,0.10000000,-0.10000000,-0.16000000,0.00012650,0.01262202,-0.00033266,-3.73000000,57.48000000,0.15000000
40,0,-0.84300000,-0.03300000,0.53500000,-0.02000000,0.09000000,0.06000000,-0.00105766,0.01795074,0.00321982,-3.73000000,57.48000000,0.15000000
41,0,-0.84300000,-0.03400000,0.54000000,0.15000000,0.11000000,-0.03000000,-0.00089804,0.01806780,0.00318790,-3.73000000,57.48000000,0.15000000
42,0,-0.83600000,-0.03600000,0.53100000,0.12000000,-0.06000000,-0.15000000,-0.00077686,0.01800721,0.00303643,-3.73000000,57.48000000,0.15000000
43,0,-0.84300000,-0.03500000,0.53700000,-0.04000000,0.01000000,0.14000000,-0.00081669,0.01801717,0.00317583,-3.74000000,57.48000000,0.14000000
44,0,-0.83900000,-0.03300000,0.53500000,0.05000000,-0.25000000,0.02000000,-0.00076699,0.01776865,0.00319571,-3.73000000,57.48000000,0.15000000
45,0,-0.84300000,-0.04000000,0.53600000,0.16000000,-0.09000000,-0.12000000,-0.00060767,0.01767903,0.00307622,-3.74000000,57.49000000,0.14000000
46,0,-0.84400000,-0.03600000,0.53500000,-0.13000000,-0.43000000,-0.21000000,-0.00073795,0.01724810,0.00286577,-3.74000000,57.49000000,0.14000000
47,0,-0.83900000,-0.03500000,0.53800000,0.01000000,0.10000000,0.19000000,-0.00018277,0.02279992,0.01341424,-3.74000000,57.49000000,0.14000000
48,0,-0.84300000,-0.03300000,0.53700000,-0.01000000,0.01000000,0.05000000,-0.00019334,0.02281050,0.01346711,-3.74000000,57.49000000,0.14000000
49,0,-0.84500000,-0.03400000,0.53800000,0.02000000,0.20000000,-0.09000000,-0.00017227,0.02302123,0.01337228,-3.73000000,57.49000000,0.14000000
50,0,-0.84200000,-0.03400000,0.53100000,-0.02000000,-0.13000000,0.18000000,-0.00019230,0.02289104,0.01355254,-3.73000000,57.49000000,0.14000000
51,0,-0.84600000,-0.03400000,0.53700000,-0.06000000,-0.04000000,-0.02000000,-0.00025217,0.02285113,0.01353258,-3.73000000,57.49000000,0.15000000
52,0,-0.84200000,-0.03300000,0.53700000,0.08000000,0.21000000,0.37000000,-0.00017160,0.02306264,0.01390524,-3.73000000,57.49000000,0.15000000
53,0,-0.84200000,-0.03800000,0.53800000,-0.09000000,0.00000000,0.16000000,-0.00516152,0.02306264,0.02277622,-3.72000000,57.49000000,0.15000000
54,0,-0.84200000,-0.03500000,0.53600000,0.09000000,0.31000000,0.06000000,-0.00506646,0.02339009,0.02283960,-3.72000000,57.49000000,0.15000000
55,0,-0.84300000,-0.03500000,0.53600000,0.07000000,0.08000000,0.03000000,-0.00499577,0.02347087,0.02286989,-3.72000000,57.49000000,0.15000000
56,0,-0.84500000,-0.03100000,0.53500000,-0.04000000,0.09000000,0.25000000,-0.00503544,0.02356012,0.02311782,-3.72000000,57.50000000,0.15000000
57,0,-0.84300000,-0.03700000,0.53700000,0.07000000,0.08000000,0.09000000,-0.00496590,0.02363959,0.02320722,-3.72000000,57.50000000,0.15000000
58,0,-0.84200000,-0.03400000,0.53900000,-0.12000000,0.11000000,-0.11000000,-0.00508645,0.02375009,0.02309672,-3.73000000,57.49000000,0.15000000
59,0,-0.84400000,-0.03400000,0.54000000,0.20000000,0.21000000,-0.01000000,0.00620298,0.03560399,0.02253225,-3.73000000,57.50000000,0.15000000
60,0,-0.84800000,-0.03200000,0.54100000,0.18000000,0.02000000,-0.20000000,0.00639251,0.03562505,0.02232165,-3.73000000,57.50000000,0.15000000
61,0,-0.84300000,-0.03500000,0.53800000,-0.17000000,-0.07000000,-0.16000000,0.00622165,0.03555470,0.02216085,-3.73000000,57.50000000,0.15000000
62,0,-0.84100000,-0.03300000,0.53300000,-0.01000000,-0.20000000,0.11000000,0.00621167,0.03535498,0.02227069,-3.72000000,57.50000000,0.15000000
63,0,-0.84100000,-0.03500000,0.53900000,-0.18000000,-0.05000000,0.15000000,0.00602977,0.03530445,0.02242227,-3.72000000,57.50000000,0.15000000
64,0,-0.84600000,-0.03400000,0.53200000,0.02000000,-0.02000000,-0.02000000,0.00604991,0.03528432,0.02240214,-3.72000000,57.50000000,0.15000000
65,0,-0.84000000,-0.03500000,0.53700000,-0.04000000,-0.01000000,-0.09000000,0.00383049,0.03472946,0.01740846,-3.72000000,57.49000000,0.15000000
66,0,-0.83800000,-0.03500000,0.53500000,-0.04000000,-0.03000000,-0.03000000,0.00378819,0.03469774,0.01737673,-3.72000000,57.49000000,0.15000000
67,0,-0.84100000,-0.03200000,0.53300000,0.24000000,-0.02000000,0.28000000,0.00402963,0.03467762,0.01765841,-3.72000000,57.49000000,0.16000000
68,0,-0.84900000,-0.03900000,0.53800000,-0.13000000,0.05000000,-0.12000000,0.00389972,0.03472759,0.01753849,-3.71000000,57.49000000,0.16000000
69,0,-0.84500000,-0.02900000,0.54100000,-0.28000000,-0.02000000,0.05000000,0.00361804,0.03470747,0.01758879,-3.72000000,57.49000000,0.16000000
70,0,-0.84100000,-0.03700000,0.53800000,0.16000000,0.09000000,-0.01000000,0.00377786,0.03479736,0.01757880,-3.72000000,57.49000000,0.16000000
71,0,-0.84600000,-0.03500000,0.53600000,-0.10000000,-0.31000000,0.03000000,-0.00179481,0.01752211,0.01925060,-3.72000000,57.49000000,0.16000000
72,0,-0.84200000,-0.04000000,0.53500000,0.12000000,0.12000000,0.03000000,-0.00166150,0.01765541,0.01928393,-3.72000000,57.49000000,0.15000000
73,0,-0.84200000,-0.03300000,0.53700000,-0.23000000,0.02000000,0.25000000,-0.00189540,0.01767575,0.01953817,-3.72000000,57.49000000,0.15000000
74,0,-0.84500000,-0.03300000,0.53400000,-0.08000000,0.09000000,0.05000000,-0.00197645,0.01776693,0.01958882,-3.72000000,57.49000000,0.15000000
75,0,-0.84400000,-0.03800000,0.54100000,-0.28000000,-0.01000000,-0.09000000,-0.00225579,0.01775696,0.01949904,-3.72000000,57.49000000,0.15000000
76,0,-0.83700000,-0.03200000,0.53900000,-0.13000000,-0.10000000,0.01000000,-0.00238601,0.01765679,0.01950905,-3.72000000,57.49000000,0.15000000
77,0,-0.84500000,-0.03500000,0.53300000,0.02000000,-0.13000000,0.03000000,-0.00126244,0.01035353,0.02119442,-3.72000000,57.49000000,0.16000000
78,0,-0.84200000,-0.03300000,0.54100000,0.09000000,-0.20000000,0.07000000,-0.00116286,0.01013226,0.02127187,-3.72000000,57.49000000,0.16000000
79,0,-0.84500000,-0.03500000,0.53900000,-0.04000000,0.10000000,0.08000000,-0.00120341,0.01023362,0.02135296,-3.72000000,57.49000000,0.16000000
80,0,-0.84300000,-0.03900000,0.54100000,0.02000000,-0.25000000,-0.03000000,-0.00118321,0.00998111,0.02132265,-3.71000000,57.48000000,0.16000000
81,0,-0.83700000,-0.03700000,0.53600000,-0.02000000,0.14000000,0.19000000,-0.00120320,0.01012108,0.02151261,-3.72000000,57.48000000,0.16000000
82,0,-0.84000000,-0.03400000,0.53700000,-0.02000000,-0.15000000,0.04000000,-0.00122319,0.00997118,0.02155259,-3.71000000,57.48000000,0.16000000
83,0,-0.84100000,-0.03600000,0.53700000,-0.05000000,0.03000000,0.08000000,-0.00399539,0.01163451,0.02598812,-3.72000000,57.48000000,0.16000000
84,0,-0.84100000,-0.03600000,0.53800000,-0.01000000,-0.02000000,0.14000000,-0.00400595,0.01161339,0.02613593,-3.72000000,57.48000000,0.16000000
85,0,-0.84300000,-0.03600000,0.53700000,0.10000000,0.22000000,0.14000000,-0.00390554,0.01183429,0.02627650,-3.72000000,57.48000000,0.16000000
86,0,-0.83700000,-0.03700000,0.53700000,-0.27000000,0.22000000,-0.33000000,-0.00417916,0.01205723,0.02594209,-3.72000000,57.49000000,0.16000000
87,0,-0.84700000,-0.03400000,0.53800000,-0.16000000,-0.02000000,-0.15000000,-0.00434008,0.01203712,0.02579122,-3.72000000,57.49000000,0.16000000
88,0,-0.84300000,-0.03400000,0.53300000,-0.08000000,0.04000000,0.12000000,-0.00441987,0.01207701,0.02591091,-3.72000000,57.49000000,0.16000000
89,0,-0.84600000,-0.03700000,0.53800000,0.02000000,-0.02000000,-0.09000000,-0.00330774,0.01096488,0.02090633,-3.72000000,57.48000000,0.16000000
90,0,-0.84400000,-0.03700000,0.53500000,0.23000000,0.11000000,0.16000000,-0.00306869,0.01107921,0.02107263,-3.72000000,57.48000000,0.16000000
91,0,-0.84300000,-0.03300000,0.53700000,-0.09000000,-0.41000000,-0.03000000,-0.00315837,0.01067067,0.02104274,-3.72000000,57.48000000,0.16000000
92,0,-0.84600000,-0.03500000,0.53500000,0.40000000,0.06000000,-0.02000000,-0.00275235,0.01073157,0.02102243,-3.72000000,57.48000000,0.16000000
93,0,-0.84300000,-0.03800000,0.53700000,-0.08000000,-0.08000000,0.11000000,-0.00283313,0.01065079,0.02113351,-3.72000000,57.48000000,0.16000000
94,0,-0.84400000,-0.03500000,0.53600000,0.24000000,0.14000000,-0.09000000,-0.00259255,0.01079112,0.02104330,-3.72000000,57.48000000,0.15000000
95,0,-0.84000000,-0.03700000,0.53800000,-0.06000000,-0.28000000,-0.01000000,-0.00597446,-0.00499111,0.02047964,-3.72000000,57.48000000,0.15000000
96,0,-0.84000000,-0.03300000,0.53700000,-0.02000000,0.04000000,-0.20000000,-0.00599545,-0.00494913,0.02026977,-3.72000000,57.48000000,0.15000000
97,0,-0.84100000,-0.03600000,0.53400000,0.02000000,0.15000000,0.25000000,-0.00597387,-0.00478733,0.02053945,-3.72000000,57.48000000,0.15000000
98,0,-0.83700000,-0.03600000,0.53200000,-0.08000000,0.23000000,-0.03000000,-0.00605368,-0.00455787,0.02050952,-3.73000000,57.48000000,0.15000000
99,0,-0.84000000,-0.03300000,0.53800000,-0.13000000,0.04000000,0.07000000,-0.00618276,-0.00451815,0.02057902,-3.73000000,57.48000000,0.15000000
100,0,-0.84500000,-0.03600000,0.54100000,0.11000000,0.06000000,-0.00000000,-0.00607299,-0.00445828,0.02057902,-3.73000000,57.48000000,0.15000000
101,0,-0.84700000,-0.03400000,0.53800000,0.16000000,-0.02000000,-0.14000000,0.00279933,-0.00556732,0.01281574,-3.73000000,57.48000000,0.14000000
102,0,-0.85000000,-0.03500000,0.53900000,0.09000000,0.14000000,0.02000000,0.00289293,-0.00542171,0.01283654,-3.73000000,57.48000000,0.14000000
103,0,-0.84800000,-0.03000000,0.53900000,-0.05000000,-0.12000000,-0.06000000,0.00284267,-0.00554234,0.01277623,-3.73000000,57.48000000,0.15000000
104,0,-0.83700000,-0.03600000,0.53400000,0.33000000,0.19000000,0.02000000,0.00317433,-0.00535138,0.01279633,-3.73000000,57.48000000,0.14000000
105,0,-0.84600000,-0.03100000,0.53500000,-0.05000000,0.35000000,0.19000000,0.00312500,-0.00500605,0.01298380,-3.73000000,57.48000000,0.15000000
106,0,-0.84600000,-0.03700000,0.53900000,0.03000000,-0.04000000,-0.05000000,0.00315481,-0.00504580,0.01293410,-3.73000000,57.49000000,0.15000000
107,0,-0.84500000,-0.04200000,0.53700000,-0.03000000,-0.18000000,-0.04000000,0.00148485,-0.01506556,0.01070749,-3.74000000,57.48000000,0.14000000
108,0,-0.84300000,-0.03600000,0.53800000,-0.06000000,0.22000000,-0.00000000,0.00141936,-0.01482542,0.01070749,-3.73000000,57.48000000,0.15000000
109,0,-0.84600000,-0.03400000,0.53900000,-0.14000000,0.01000000,0.11000000,0.00127668,-0.01481522,0.01081959,-3.73000000,57.48000000,0.15000000
110,0,-0.84400000,-0.03300000,0.53300000,0.07000000,-0.03000000,-0.17000000,0.00134655,-0.01484517,0.01064991,-3.73000000,57.48000000,0.15000000
111,0,-0.84200000,-0.03300000,0.53400000,0.17000000,0.18000000,-0.01000000,0.00151615,-0.01466559,0.01063993,-3.73000000,57.48000000,0.15000000
112,0,-0.84500000,-0.03700000,0.53500000,0.02000000,0.00000000,-0.10000000,0.00153605,-0.01466559,0.01054046,-3.73000000,57.48000000,0.15000000
113,0,-0.84400000,-0.03700000,0.53500000,-0.26000000,-0.14000000,-0.22000000,-0.01312037,-0.02255751,-0.00186113,-3.73000000,57.48000000,0.15000000
114,0,-0.83900000,-0.03900000,0.53400000,0.19000000,0.06000000,0.44000000,-0.01292058,-0.02249442,-0.00139846,-3.73000000,57.48000000,0.14000000
115,0,-0.84900000,-0.03500000,0.54000000,0.11000000,-0.09000000,0.15000000,-0.01281092,-0.02258414,-0.00124892,-3.73000000,57.48000000,0.15000000
116,0,-0.84600000,-0.03300000,0.53300000,-0.06000000,-0.20000000,0.15000000,-0.01287083,-0.02278386,-0.00109913,-3.73000000,57.48000000,0.15000000
117,0,-0.84200000,-0.03500000,0.53500000,-0.27000000,0.08000000,-0.44000000,-0.01313698,-0.02270500,-0.00153285,-3.73000000,57.48000000,0.15000000
118,0,-0.84100000,-0.03500000,0.53300000,-0.06000000,0.11000000,-0.16000000,-0.01319721,-0.02259458,-0.00169346,-3.74000000,57.48000000,0.14000000
119,0,-0.84600000,-0.03700000,0.53300000,0.08000000,-0.05000000,-0.13000000,-0.00875016,-0.02537399,-0.00891992,-3.74000000,57.48000000,0.14000000
120,0,-0.84200000,-0.03500000,0.53600000,0.01000000,-0.04000000,-0.02000000,-0.00873720,-0.02542582,-0.00894583,-3.74000000,57.48000000,0.14000000
121,0,-0.84600000,-0.03800000,0.53700000,-0.03000000,0.17000000,0.04000000,-0.00876906,-0.02524528,-0.00890335,-3.74000000,57.48000000,0.14000000
122,0,-0.84300000,-0.03200000,0.53500000,0.25000000,-0.13000000,0.13000000,-0.00851560,-0.02537708,-0.00877155,-3.73000000,57.48000000,0.15000000
123,0,-0.84300000,-0.03300000,0.53800000,0.13000000,-0.03000000,-0.10000000,-0.00838516,-0.02540718,-0.00887189,-3.74000000,57.48000000,0.14000000
124,0,-0.84400000,-0.03200000,0.53600000,-0.15000000,-0.01000000,0.06000000,-0.00853731,-0.02541732,-0.00881103,-3.73000000,57.48000000,0.14000000
125,0,-0.84100000,-0.04000000,0.53600000,0.08000000,-0.12000000,-0.04000000,-0.00411811,-0.03204613,-0.01102063,-3.74000000,57.48000000,0.14000000
126,0,-0.84600000,-0.03400000,0.53000000,0.07000000,-0.09000000,0.02000000,-0.00404315,-0.03214250,-0.01099921,-3.73000000,57.49000000,0.15000000
127,0,-0.84400000,-0.03200000,0.53500000,0.09000000,0.08000000,0.21000000,-0.00395311,-0.03206246,-0.01078910,-3.73000000,57.48000000,0.15000000
128,0,-0.84000000,-0.03600000,0.54100000,0.01000000,-0.22000000,-0.18000000,-0.00394319,-0.03228058,-0.01096757,-3.73000000,57.48000000,0.15000000
129,0,-0.84500000,-0.03900000,0.53600000,-0.04000000,0.16000000,0.08000000,-0.00398299,-0.03212138,-0.01088796,-3.74000000,57.48000000,0.14000000
130,0,-0.84100000,-0.03500000,0.53400000,-0.12000000,0.19000000,-0.24000000,-0.00410414,-0.03192956,-0.01113026,-3.74000000,57.48000000,0.14000000
131,0,-0.84600000,-0.03500000,0.53600000,0.08000000,0.13000000,0.17000000,0.00040089,-0.02460888,-0.00155707,-3.73000000,57.48000000,0.14000000
132,0,-0.84300000,-0.03400000,0.53500000,-0.10000000,-0.15000000,-0.12000000,0.00029524,-0.02476736,-0.00168385,-3.73000000,57.48000000,0.15000000
133,0,-0.84700000,-0.03500000,0.53900000,0.13000000,0.03000000,-0.13000000,0.00042608,-0.02473717,-0.00181469,-3.73000000,57.48000000,0.15000000
134,0,-0.84600000,-0.03400000,0.53400000,0.05000000,-0.12000000,0.02000000,0.00047575,-0.02485637,-0.00179482,-3.73000000,57.48000000,0.15000000
135,0,-0.84500000,-0.03900000,0.53700000,0.07000000,0.07000000,0.07000000,0.00054593,-0.02478618,-0.00172464,-3.73000000,57.48000000,0.15000000
136,0,-0.84400000,-0.03300000,0.53800000,-0.09000000,0.14000000,-0.17000000,0.00045655,-0.02464715,-0.00189347,-3.73000000,57.48000000,0.15000000
137,0,-0.84600000,-0.03600000,0.53500000,0.30000000,-0.15000000,-0.04000000,0.01713020,-0.03298397,-0.00411662,-3.73000000,57.49000000,0.15000000
138,0,-0.83800000,-0.03500000,0.53500000,-0.14000000,0.17000000,-0.08000000,0.01694069,-0.03275386,-0.00422491,-3.73000000,57.48000000,0.15000000
139,0,-0.84100000,-0.03400000,0.53400000,-0.06000000,-0.11000000,0.19000000,0.01686254,-0.03289714,-0.00397742,-3.73000000,57.48000000,0.15000000
140,0,-0.83700000,-0.03500000,0.53800000,0.05000000,0.02000000,0.11000000,0.01692765,-0.03287109,-0.00383416,-3.73000000,57.48000000,0.15000000
141,0,-0.84000000,-0.03200000,0.53500000,-0.30000000,0.01000000,-0.20000000,0.01654017,-0.03285818,-0.00409248,-3.73000000,57.48000000,0.15000000
142,0,-0.84300000,-0.03200000,0.53300000,-0.23000000,0.21000000,0.18000000,0.01623471,-0.03257928,-0.00385343,-3.73000000,57.48000000,0.15000000
143,0,-0.84500000,-0.03800000,0.53900000,0.15000000,-0.03000000,-0.02000000,0.02435752,-0.03420384,-0.00493647,-3.73000000,57.48000000,0.15000000
144,0,-0.84300000,-0.03600000,0.53800000,0.21000000,0.10000000,-0.09000000,0.02464103,-0.03406884,-0.00505797,-3.73000000,57.48000000,0.15000000
145,0,-0.84200000,-0.03600000,0.53700000,0.05000000,-0.11000000,-0.05000000,0.02470621,-0.03421223,-0.00512315,-3.73000000,57.48000000,0.15000000
146,0,-0.84100000,-0.03500000,0.53900000,-0.25000000,-0.26000000,0.07000000,0.02437848,-0.03455307,-0.00503138,-3.73000000,57.48000000,0.15000000
147,0,-0.84300000,-0.04000000,0.53600000,-0.26000000,0.12000000,-0.14000000,0.02403497,-0.03439453,-0.00521635,-3.73000000,57.48000000,0.15000000
148,0,-0.84300000,-0.03400000,0.53700000,-0.06000000,0.01000000,0.24000000,0.02395215,-0.03438073,-0.00488507,-3.73000000,57.48000000,0.15000000
149,0,-0.84000000,-0.03100000,0.53700000,0.07000000,0.10000000,-0.09000000,0.02778956,-0.02889871,-0.00981889,-3.73000000,57.48000000,0.15000000
150,0,-0.84300000,-0.03200000,0.53600000,0.19000000,0.11000000,0.05000000,0.02806052,-0.02874184,-0.00974759,-3.73000000,57.48000000,0.15000000
151,0,-0.84200000,-0.03700000,0.53600000,-0.01000000,-0.14000000,-0.34000000,0.02804707,-0.02893014,-0.01020489,-3.73000000,57.48000000,0.15000000
152,0,-0.84500000,-0.03400000,0.53500000,-0.03000000,0.13000000,0.11000000,0.02800757,-0.02875898,-0.01006006,-3.73000000,57.48000000,0.15000000
153,0,-0.84400000,-0.03800000,0.53700000,0.01000000,-0.22000000,0.24000000,0.02802115,-0.02905777,-0.00973411,-3.72000000,57.48000000,0.15000000
154,0,-0.84200000,-0.03500000,0.53600000,-0.08000000,-0.05000000,-0.22000000,0.02791092,-0.02912666,-0.01003725,-3.73000000,57.48000000,0.15000000
155,0,-0.84300000,-0.03300000,0.53300000,-0.02000000,-0.03000000,-0.09000000,0.02683740,-0.03073693,-0.01486805,-3.73000000,57.48000000,0.15000000
156,0,-0.84300000,-0.03600000,0.53200000,0.01000000,-0.02000000,0.09000000,0.02685127,-0.03076467,-0.01474322,-3.72000000,57.48000000,0.15000000
157,0,-0.84600000,-0.03400000,0.53200000,0.25000000,0.05000000,0.08000000,0.02720654,-0.03069362,-0.01462953,-3.72000000,57.48000000,0.15000000
158,0,-0.84400000,-0.03600000,0.53400000,0.09000000,-0.16000000,0.08000000,0.02732895,-0.03091122,-0.01452073,-3.72000000,57.48000000,0.16000000
159,0,-0.83900000,-0.03700000,0.53500000,-0.14000000,0.01000000,0.19000000,0.02709331,-0.03089439,-0.01420094,-3.72000000,57.48000000,0.15000000
160,0,-0.84200000,-0.03300000,0.53500000,0.09000000,0.19000000,-0.00000000,0.02724818,-0.03056744,-0.01420094,-3.72000000,57.48000000,0.16000000
161,0,-0.84300000,-0.02900000,0.54000000,-0.08000000,0.06000000,-0.09000000,0.02293535,-0.02733282,-0.01905287,-3.72000000,57.48000000,0.16000000
162,0,-0.84400000,-0.03400000,0.53700000,0.20000000,0.02000000,-0.22000000,0.02320474,-0.02730588,-0.01934920,-3.72000000,57.48000000,0.15000000
163,0,-0.84400000,-0.03200000,0.53700000,0.26000000,-0.21000000,-0.25000000,0.02354471,-0.02758048,-0.01967610,-3.72000000,57.48000000,0.15000000
164,0,-0.84300000,-0.03700000,0.53600000,-0.05000000,0.04000000,0.06000000,0.02347900,-0.02752791,-0.01959724,-3.72000000,57.48000000,0.15000000
165,0,-0.84100000,-0.03300000,0.53500000,0.15000000,0.12000000,-0.03000000,0.02367407,-0.02737186,-0.01963625,-3.72000000,57.48000000,0.15000000
166,0,-0.84100000,-0.03200000,0.54100000,0.14000000,0.20000000,-0.26000000,0.02386647,-0.02709699,-0.01999358,-3.72000000,57.48000000,0.15000000
167,0,-0.84600000,-0.03900000,0.53900000,0.04000000,0.29000000,-0.17000000,0.02614129,-0.01060459,-0.02966154,-3.72000000,57.48000000,0.15000000
168,0,-0.84000000,-0.03000000,0.54100000,-0.10000000,0.03000000,-0.03000000,0.02600364,-0.01056330,-0.02970283,-3.72000000,57.48000000,0.15000000
169,0,-0.84300000,-0.03400000,0.54000000,-0.07000000,0.14000000,0.04000000,0.02591049,-0.01037700,-0.02964960,-3.72000000,57.48000000,0.15000000
170,0,-0.84200000,-0.03700000,0.53200000,0.02000000,0.03000000,-0.04000000,0.02593691,-0.01033736,-0.02970245,-3.72000000,57.48000000,0.15000000
171,0,-0.83600000,-0.03100000,0.53500000,-0.17000000,0.12000000,0.07000000,0.02571628,-0.01018162,-0.02961160,-3.72000000,57.48000000,0.15000000
172,0,-0.84700000,-0.04000000,0.53600000,0.10000000,0.13000000,0.13000000,0.02586123,-0.00999320,-0.02942318,-3.72000000,57.48000000,0.15000000
173,0,-0.84400000,-0.03600000,0.53600000,-0.13000000,-0.24000000,-0.10000000,0.02564425,-0.01039376,-0.02959008,-3.72000000,57.48000000,0.15000000
174,0,-0.83900000,-0.03900000,0.54000000,-0.12000000,-0.16000000,-0.06000000,0.01924422,-0.01892714,-0.03279010,-3.72000000,57.48000000,0.15000000
175,0,-0.84400000,-0.04000000,0.53900000,0.18000000,-0.15000000,0.02000000,0.01948834,-0.01913058,-0.03276297,-3.73000000,57.48000000,0.15000000
176,0,-0.84500000,-0.03800000,0.53500000,0.24000000,0.20000000,-0.06000000,0.01980685,-0.01886515,-0.03284260,-3.72000000,57.48000000,0.15000000
177,0,-0.84200000,-0.03500000,0.53500000,-0.05000000,0.11000000,0.10000000,0.01974172,-0.01872186,-0.03271234,-3.72000000,57.48000000,0.15000000
178,0,-0.84300000,-0.03100000,0.53600000,0.02000000,-0.10000000,-0.16000000,0.01976700,-0.01884824,-0.03291454,-3.72000000,57.48000000,0.15000000
179,0,-0.84300000,-0.03100000,0.53800000,0.09000000,-0.17000000,0.06000000,0.01987951,-0.01906076,-0.03283953,-3.72000000,57.48000000,0.15000000
180,0,-0.84200000,-0.03600000,0.53600000,0.24000000,-0.15000000,0.02000000,0.03287510,-0.02718300,-0.03175656,-3.72000000,57.48000000,0.15000000
181,0,-0.83900000,-0.03800000,0.53700000,-0.04000000,-0.03000000,0.11000000,0.03282356,-0.02722166,-0.03161483,-3.73000000,57.48000000,0.14000000
182,0,-0.84300000,-0.03200000,0.53700000,0.03000000,0.11000000,0.06000000,0.03286108,-0.02708409,-0.03153979,-3.73000000,57.48000000,0.14000000
183,0,-0.84700000,-0.03600000,0.53800000,0.01000000,-0.05000000,0.09000000,0.03287341,-0.02714575,-0.03142880,-3.73000000,57.48000000,0.14000000
184,0,-0.84200000,-0.03600000,0.53500000,-0.01000000,0.10000000,0.08000000,0.03286109,-0.02702248,-0.03133018,-3.73000000,57.48000000,0.14000000
185,0,-0.84800000,-0.03300000,0.53400000,-0.09000000,-0.15000000,-0.20000000,0.03274033,-0.02722373,-0.03159852,-3.73000000,57.48000000,0.14000000
186,0,-0.84600000,-0.03100000,0.53800000,0.01000000,-0.00000000,-0.09000000,0.03329272,-0.02722373,-0.03657004,-3.73000000,57.48000000,0.14000000
187,0,-0.84200000,-0.03200000,0.53600000,0.08000000,-0.06000000,-0.28000000,0.03340076,-0.02730476,-0.03694818,-3.73000000,57.48000000,0.14000000
188,0,-0.84100000,-0.03200000,0.53600000,0.08000000,0.02000000,0.28000000,0.03349934,-0.02728012,-0.03660315,-3.73000000,57.48000000,0.14000000
189,0,-0.84100000,-0.03700000,0.53700000,0.20000000,-0.08000000,-0.27000000,0.03374579,-0.02737870,-0.03693586,-3.73000000,57.48000000,0.14000000
190,0,-0.84300000,-0.03400000,0.53500000,0.12000000,0.15000000,0.12000000,0.03390311,-0.02718206,-0.03677854,-3.73000000,57.48000000,0.14000000
191,0,-0.84400000,-0.03100000,0.53900000,-0.29000000,0.13000000,0.11000000,0.03352916,-0.02701443,-0.03663670,-3.73000000,57.48000000,0.14000000
192,0,-0.83900000,-0.03000000,0.53800000,-0.08000000,0.03000000,-0.05000000,0.02919279,-0.02538829,-0.03934693,-3.73000000,57.48000000,0.14000000
193,0,-0.84400000,-0.03800000,0.53800000,0.07000000,0.08000000,0.02000000,0.02928900,-0.02527834,-0.03931944,-3.73000000,57.48000000,0.14000000
194,0,-0.84600000,-0.03400000,0.53800000,0.01000000,-0.11000000,-0.04000000,0.02930157,-0.02541662,-0.03936973,-3.73000000,57.48000000,0.15000000
195,0,-0.84600000,-0.03100000,0.53500000,-0.19000000,0.19000000,0.29000000,0.02906803,-0.02518308,-0.03901327,-3.73000000,57.48000000,0.15000000
196,0,-0.84700000,-0.03700000,0.53800000,0.13000000,-0.07000000,0.10000000,0.02923080,-0.02527072,-0.03888807,-3.72000000,57.48000000,0.15000000
197,0,-0.84300000,-0.04100000,0.53600000,-0.08000000,0.02000000,0.01000000,0.02906866,-0.02523019,-0.03886780,-3.72000000,57.48000000,0.15000000
198,0,-0.84300000,-0.03500000,0.53800000,-0.16000000,-0.03000000,-0.05000000,0.02049752,-0.02683728,-0.04154628,-3.73000000,57.48000000,0.15000000
199,0,-0.84200000,-0.03500000,0.53700000,0.00000000,-0.20000000,-0.05000000,0.02049752,-0.02711329,-0.04161529,-3.73000000,57.48000000,0.15000000
200,0,-0.83900000,-0.03800000,0.53500000,0.06000000,0.06000000,-0.02000000,0.02057325,-0.02703755,-0.04164053,-3.73000000,57.48000000,0.15000000
201,0,-0.84200000,-0.03100000,0.53600000,0.11000000,0.10000000,0.02000000,0.02071368,-0.02690990,-0.04161500,-3.73000000,57.48000000,0.15000000
202,0,-0.84400000,-0.03200000,0.53300000,-0.03000000,-0.03000000,0.20000000,0.02067615,-0.02694742,-0.04136483,-3.72000000,57.48000000,0.15000000
203,0,-0.84700000,-0.03800000,0.53500000,-0.07000000,0.29000000,-0.04000000,0.02058511,-0.02657022,-0.04141686,-3.72000000,57.48000000,0.15000000
204,0,-0.84700000,-0.03400000,0.53800000,0.02000000,-0.10000000,0.04000000,0.02168052,-0.03204728,-0.03922604,-3.72000000,57.48000000,0.15000000
205,0,-0.84600000,-0.03700000,0.53900000,-0.10000000,0.03000000,-0.23000000,0.02153824,-0.03200460,-0.03955327,-3.72000000,57.48000000,0.15000000
206,0,-0.84100000,-0.03700000,0.53500000,-0.03000000,-0.03000000,-0.15000000,0.02148836,-0.03205448,-0.03980269,-3.72000000,57.48000000,0.15000000
207,0,-0.84000000,-0.03800000,0.53400000,0.03000000,-0.09000000,-0.00000000,0.02153139,-0.03218356,-0.03980269,-3.72000000,57.48000000,0.15000000
208,0,-0.84600000,-0.03800000,0.53700000,-0.20000000,0.16000000,0.03000000,0.02124865,-0.03195737,-0.03976028,-3.72000000,57.48000000,0.15000000
209,0,-0.83900000,-0.03300000,0.53500000,-0.13000000,-0.09000000,-0.13000000,0.02105216,-0.03209340,-0.03995677,-3.72000000,57.48000000,0.15000000
210,0,-0.84000000,-0.03800000,0.53700000,-0.33000000,-0.19000000,-0.17000000,0.00351092,-0.04219291,-0.04899317,-3.72000000,57.48000000,0.15000000
211,0,-0.84400000,-0.03300000,0.53900000,0.09000000,0.06000000,0.10000000,0.00363693,-0.04210890,-0.04885316,-3.73000000,57.48000000,0.15000000
212,0,-0.84500000,-0.03500000,0.53900000,-0.10000000,0.13000000,0.14000000,0.00349813,-0.04192847,-0.04865885,-3.73000000,57.48000000,0.15000000
213,0,-0.84600000,-0.03300000,0.53200000,0.02000000,0.12000000,0.08000000,0.00352650,-0.04175825,-0.04854537,-3.73000000,57.48000000,0.15000000
214,0,-0.84400000,-0.03500000,0.53500000,-0.15000000,0.20000000,0.04000000,0.00331563,-0.04147709,-0.04848914,-3.73000000,57.48000000,0.15000000
215,0,-0.84500000,-0.03300000,0.53900000,-0.10000000,-0.15000000,-0.01000000,0.00312927,-0.04175663,-0.04850777,-3.73000000,57.48000000,0.15000000
216,0,-0.83800000,-0.03700000,0.53600000,-0.31000000,-0.03000000,-0.05000000,-0.01341805,-0.04335798,-0.05117670,-3.73000000,57.48000000,0.15000000
217,0,-0.83900000,-0.03600000,0.53400000,-0.08000000,0.00000000,0.00000000,-0.01354482,-0.04335798,-0.05117670,-3.73000000,57.48000000,0.15000000
218,0,-0.84300000,-0.03200000,0.54000000,-0.05000000,0.35000000,-0.04000000,-0.01362052,-0.04282806,-0.05123726,-3.73000000,57.48000000,0.15000000
219,0,-0.84300000,-0.03500000,0.53700000,-0.02000000,-0.06000000,-0.24000000,-0.01365052,-0.04291806,-0.05159726,-3.73000000,57.48000000,0.15000000
220,0,-0.84300000,-0.03200000,0.53300000,-0.38000000,0.03000000,0.05000000,-0.01425567,-0.04287028,-0.05151763,-3.73000000,57.48000000,0.15000000
221,0,-0.84200000,-0.04100000,0.53800000,-0.20000000,-0.16000000,0.19000000,-0.01466024,-0.04319394,-0.05113329,-3.73000000,57.48000000,0.15000000
222,0,-0.84100000,-0.03300000,0.53400000,-0.20000000,-0.10000000,0.09000000,-0.02528734,-0.04850749,-0.04635110,-3.73000000,57.48000000,0.15000000
223,0,-0.84000000,-0.03300000,0.54000000,-0.19000000,-0.18000000,0.05000000,-0.02559816,-0.04880195,-0.04626930,-3.73000000,57.48000000,0.14000000
224,0,-0.84300000,-0.03200000,0.53500000,-0.05000000,0.26000000,0.04000000,-0.02567390,-0.04840811,-0.04620871,-3.74000000,57.48000000,0.14000000
225,0,-0.84400000,-0.03400000,0.53900000,-0.12000000,-0.14000000,0.34000000,-0.02590874,-0.04868209,-0.04554332,-3.73000000,57.48000000,0.15000000
226,0,-0.84200000,-0.03500000,0.53800000,-0.05000000,-0.23000000,-0.11000000,-0.02599407,-0.04907458,-0.04573103,-3.73000000,57.48000000,0.15000000
227,0,-0.84400000,-0.03700000,0.53700000,0.01000000,-0.14000000,0.04000000,-0.02597861,-0.04929096,-0.04566921,-3.73000000,57.48000000,0.15000000
228,0,-0.84200000,-0.03700000,0.53900000,0.02000000,-0.26000000,-0.25000000,-0.02493854,-0.06281192,-0.05867014,-3.73000000,57.48000000,0.15000000
229,0,-0.84700000,-0.03400000,0.53800000,-0.14000000,0.22000000,-0.13000000,-0.02513428,-0.06250432,-0.05885190,-3.73000000,57.48000000,0.14000000
230,0,-0.84100000,-0.03500000,0.53600000,0.14000000,-0.14000000,-0.04000000,-0.02494281,-0.06269580,-0.05890661,-3.73000000,57.48000000,0.14000000
231,0,-0.84000000,-0.03700000,0.53800000,-0.17000000,-0.15000000,0.07000000,-0.02517868,-0.06290392,-0.05880949,-3.73000000,57.47000000,0.14000000
232,0,-0.84700000,-0.03300000,0.53300000,-0.06000000,0.33000000,0.20000000,-0.02526175,-0.06244700,-0.05853257,-3.73000000,57.48000000,0.14000000
233,0,-0.84400000,-0.02900000,0.53700000,-0.04000000,-0.27000000,0.10000000,-0.02531957,-0.06283725,-0.05838803,-3.73000000,57.48000000,0.14000000
234,0,-0.84200000,-0.03300000,0.53700000,0.11000000,0.19000000,0.11000000,-0.01927926,-0.05240398,-0.05234771,-3.73000000,57.48000000,0.14000000
235,0,-0.84000000,-0.03300000,0.53900000,-0.13000000,0.04000000,0.01000000,-0.01946713,-0.05234618,-0.05233326,-3.73000000,57.48000000,0.14000000
236,0,-0.84600000,-0.03300000,0.54100000,0.10000000,0.12000000,-0.13000000,-0.01933322,-0.05218549,-0.05250734,-3.73000000,57.48000000,0.14000000
237,0,-0.84200000,-0.03700000,0.53900000,0.11000000,0.13000000,0.11000000,-0.01919127,-0.05201773,-0.05236539,-3.73000000,57.48000000,0.14000000
238,0,-0.84200000,-0.03400000,0.53700000,0.17000000,-0.18000000,-0.12000000,-0.01879794,-0.05243420,-0.05264304,-3.73000000,57.48000000,0.15000000
239,0,-0.84600000,-0.03600000,0.53700000,-0.09000000,0.02000000,0.01000000,-0.01894318,-0.05240193,-0.05262690,-3.73000000,57.48000000,0.15000000
240,0,-0.84600000,-0.03900000,0.53900000,-0.18000000,-0.03000000,-0.15000000,-0.02835676,-0.05397086,-0.06047156,-3.73000000,57.48000000,0.15000000
241,0,-0.84400000,-0.03600000,0.53500000,-0.20000000,-0.09000000,0.02000000,-0.02865662,-0.05410579,-0.06044157,-3.73000000,57.48000000,0.15000000
242,0,-0.84400000,-0.03300000,0.53500000,0.35000000,-0.10000000,-0.18000000,-0.02817518,-0.05424335,-0.06068917,-3.72000000,57.48000000,0.15000000
243,0,-0.84400000,-0.03600000,0.53800000,-0.09000000,-0.10000000,-0.12000000,-0.02829454,-0.05437597,-0.06084831,-3.72000000,57.48000000,0.15000000
244,0,-0.84000000,-0.03600000,0.53400000,0.14000000,-0.03000000,-0.04000000,-0.02810116,-0.05441741,-0.06090356,-3.72000000,57.48000000,0.15000000
245,0,-0.85000000,-0.03500000,0.53600000,-0.04000000,-0.05000000,-0.05000000,-0.02816621,-0.05449872,-0.06098488,-3.73000000,57.48000000,0.15000000
246,0,-0.84200000,-0.03700000,0.53700000,-0.08000000,-0.02000000,-0.04000000,-0.03243244,-0.05556528,-0.06311799,-3.73000000,57.48000000,0.15000000
247,0,-0.83900000,-0.03700000,0.53500000,0.13000000,0.04000000,0.08000000,-0.03222743,-0.05550220,-0.06299183,-3.72000000,57.48000000,0.15000000
248,0,-0.84700000,-0.03300000,0.53800000,0.08000000,-0.21000000,-0.07000000,-0.03210316,-0.05582841,-0.06310057,-3.72000000,57.48000000,0.15000000
249,0,-0.84400000,-0.03300000,0.53800000,0.23000000,0.02000000,-0.06000000,-0.03175131,-0.05579782,-0.06319236,-3.72000000,57.48000000,0.15000000
250,0,-0.84500000,-0.03900000,0.53900000,-0.08000000,-0.02000000,0.19000000,-0.03192027,-0.05584006,-0.06279108,-3.72000000,57.48000000,0.15000000
251,0,-0.84100000,-0.03700000,0.54000000,-0.01000000,-0.18000000,0.11000000,-0.03193762,-0.05615229,-0.06260027,-3.72000000,57.48000000,0.15000000
252,0,-0.84800000,-0.02700000,0.53500000,0.20000000,0.02000000,0.05000000,-0.02134652,-0.05509318,-0.05995250,-3.72000000,57.48000000,0.15000000
253,0,-0.84700000,-0.03300000,0.54000000,-0.24000000,0.02000000,0.16000000,-0.02174817,-0.05505971,-0.05968473,-3.72000000,57.48000000,0.15000000
254,0,-0.84400000,-0.03500000,0.53200000,-0.00000000,-0.11000000,-0.19000000,-0.02174817,-0.05522111,-0.05996352,-3.72000000,57.48000000,0.15000000
255,0,-0.84500000,-0.03700000,0.53500000,-0.10000000,0.10000000,0.02000000,-0.02188201,-0.05508728,-0.05993675,-3.72000000,57.48000000,0.15000000
256,0,-0.84200000,-0.03900000,0.53700000,-0.15000000,0.18000000,-0.08000000,-0.02209320,-0.05483384,-0.06004939,-3.73000000,57.48000000,0.15000000
257,0,-0.84000000,-0.03700000,0.53800000,0.07000000,0.01000000,0.05000000,-0.02200000,-0.05482053,-0.05998282,-3.73000000,57.48000000,0.15000000
258,0,-0.84600000,-0.03400000,0.53900000,-0.12000000,-0.06000000,-0.16000000,-0.02841357,-0.05802731,-0.06853424,-3.73000000,57.48000000,0.15000000
259,0,-0.84200000,-0.03400000,0.53700000,0.07000000,-0.16000000,-0.08000000,-0.02831212,-0.05825919,-0.06865018,-3.72000000,57.48000000,0.15000000
260,0,-0.84600000,-0.03900000,0.53900000,0.05000000,-0.11000000,0.12000000,-0.02824591,-0.05840486,-0.06849126,-3.72000000,57.48000000,0.15000000
261,0,-0.84800000,-0.03400000,0.53800000,-0.10000000,-0.09000000,-0.15000000,-0.02837591,-0.05852185,-0.06868626,-3.72000000,57.48000000,0.15000000
262,0,-0.84000000,-0.03600000,0.53800000,-0.04000000,0.00000000,-0.07000000,-0.02843255,-0.05852185,-0.06878538,-3.73000000,57.48000000,0.15000000
263,0,-0.84500000,-0.03200000,0.53400000,-0.00000000,0.06000000,-0.21000000,-0.02843255,-0.05843992,-0.06907214,-3.73000000,57.48000000,0.15000000
264,0,-0.84200000,-0.03200000,0.53700000,-0.05000000,-0.17000000,0.14000000,-0.03111855,-0.06757234,-0.06155133,-3.73000000,57.48000000,0.14000000
265,0,-0.84500000,-0.03100000,0.53600000,-0.16000000,0.22000000,0.02000000,-0.03133971,-0.06726825,-0.06152369,-3.73000000,57.48000000,0.15000000
266,0,-0.84700000,-0.03400000,0.54000000,-0.19000000,-0.06000000,0.21000000,-0.03158054,-0.06734430,-0.06125750,-3.73000000,57.48000000,0.15000000
267,0,-0.84000000,-0.03200000,0.53300000,0.10000000,0.11000000,0.29000000,-0.03145763,-0.06720910,-0.06090105,-3.72000000,57.48000000,0.15000000
268,0,-0.83800000,-0.03500000,0.53800000,-0.10000000,-0.11000000,-0.03000000,-0.03158016,-0.06734388,-0.06093781,-3.73000000,57.47000000,0.15000000
269,0,-0.84100000,-0.03600000,0.53500000,-0.01000000,-0.26000000,-0.08000000,-0.03159258,-0.06766687,-0.06103719,-3.73000000,57.47000000,0.15000000
270,0,-0.84400000,-0.03600000,0.53800000,-0.04000000,0.03000000,0.07000000,-0.03379722,-0.06601339,-0.05717907,-3.73000000,57.47000000,0.15000000
271,0,-0.84200000,-0.03100000,0.53100000,0.14000000,-0.01000000,-0.04000000,-0.03360478,-0.06602714,-0.05723405,-3.73000000,57.47000000,0.15000000
272,0,-0.84400000,-0.03300000,0.53500000,-0.01000000,0.23000000,0.12000000,-0.03361722,-0.06574098,-0.05708475,-3.72000000,57.47000000,0.15000000
273,0,-0.84600000,-0.03000000,0.54200000,-0.16000000,0.13000000,-0.01000000,-0.03381408,-0.06558103,-0.05709705,-3.72000000,57.47000000,0.15000000
274,0,-0.84000000,-0.03900000,0.54100000,0.10000000,0.12000000,0.10000000,-0.03368222,-0.06542281,-0.05696520,-3.73000000,57.47000000,0.15000000
275,0,-0.84700000,-0.03400000,0.54000000,-0.15000000,0.17000000,-0.05000000,-0.03392643,-0.06514604,-0.05704660,-3.73000000,57.48000000,0.15000000
276,0,-0.83900000,-0.03500000,0.53800000,0.08000000,-0.00000000,-0.04000000,-0.02962344,-0.06514604,-0.05919809,-3.73000000,57.48000000,0.15000000
277,0,-0.84500000,-0.03700000,0.53800000,0.12000000,0.02000000,-0.04000000,-0.02945334,-0.06511769,-0.05925479,-3.72000000,57.48000000,0.15000000
278,0,-0.84200000,-0.03500000,0.53400000,-0.16000000,-0.19000000,0.15000000,-0.02966950,-0.06537438,-0.05905215,-3.72000000,57.47000000,0.15000000
279,0,-0.84500000,-0.03200000,0.53600000,-0.19000000,-0.08000000,0.11000000,-0.02991857,-0.06547925,-0.05890794,-3.72000000,57.47000000,0.15000000
280,0,-0.85100000,-0.03600000,0.53400000,0.23000000,0.19000000,0.01000000,-0.02961909,-0.06523185,-0.05889492,-3.72000000,57.47000000,0.15000000
281,0,-0.84300000,-0.03600000,0.53500000,0.16000000,0.00000000,-0.05000000,-0.02940530,-0.06523185,-0.05896173,-3.72000000,57.47000000,0.15000000
282,0,-0.84200000,-0.03700000,0.53500000,-0.05000000,-0.06000000,0.03000000,-0.03209254,-0.06845655,-0.05734939,-3.72000000,57.47000000,0.15000000
283,0,-0.84100000,-0.03400000,0.54000000,0.03000000,0.10000000,-0.04000000,-0.03205037,-0.06831597,-0.05740562,-3.72000000,57.47000000,0.15000000
284,0,-0.84600000,-0.03000000,0.53500000,-0.04000000,-0.14000000,-0.05000000,-0.03213921,-0.06862693,-0.05751668,-3.72000000,57.47000000,0.15000000
285,0,-0.84400000,-0.03800000,0.53600000,-0.16000000,-0.02000000,0.14000000,-0.03240248,-0.06865984,-0.05728632,-3.72000000,57.47000000,0.15000000
286,0,-0.84300000,-0.03500000,0.53900000,0.04000000,0.02000000,0.18000000,-0.03233584,-0.06862652,-0.05698641,-3.72000000,57.47000000,0.15000000
287,0,-0.84600000,-0.03300000,0.53400000,0.04000000,0.14000000,0.27000000,-0.03227949,-0.06842930,-0.05660606,-3.72000000,57.47000000,0.15000000
288,0,-0.84300000,-0.03500000,0.53600000,0.16000000,-0.17000000,0.07000000,-0.02341560,-0.07784718,-0.05272811,-3.72000000,57.48000000,0.15000000
289,0,-0.84300000,-0.03300000,0.53800000,-0.14000000,-0.26000000,0.02000000,-0.02361983,-0.07822646,-0.05269894,-3.72000000,57.47000000,0.15000000
290,0,-0.83900000,-0.03700000,0.53600000,0.05000000,0.10000000,-0.09000000,-0.02355431,-0.07809541,-0.05281688,-3.72000000,57.47000000,0.15000000
291,0,-0.84700000,-0.03900000,0.53900000,-0.06000000,-0.06000000,0.04000000,-0.02363193,-0.07817304,-0.05276513,-3.72000000,57.47000000,0.15000000
292,0,-0.83900000,-0.03700000,0.53900000,-0.11000000,0.03000000,0.03000000,-0.02380323,-0.07812632,-0.05271841,-3.72000000,57.48000000,0.16000000
293,0,-0.84200000,-0.03600000,0.54000000,-0.04000000,-0.05000000,-0.01000000,-0.02387055,-0.07821048,-0.05273524,-3.72000000,57.47000000,0.16000000
294,0,-0.84100000,-0.03500000,0.53000000,0.03000000,0.19000000,-0.07000000,-0.02383030,-0.07795556,-0.05282916,-3.72000000,57.47000000,0.16000000
295,0,-0.84200000,-0.03400000,0.54000000,-0.05000000,-0.16000000,-0.08000000,-0.02653373,-0.08660654,-0.05715466,-3.72000000,57.47000000,0.16000000
296,0,-0.84400000,-0.03700000,0.53500000,-0.15000000,-0.02000000,0.13000000,-0.02676463,-0.08663733,-0.05695454,-3.72000000,57.47000000,0.15000000
297,0,-0.84300000,-0.03500000,0.53500000,-0.10000000,-0.29000000,-0.05000000,-0.02690278,-0.08703796,-0.05702362,-3.72000000,57.47000000,0.16000000
298,0,-0.84400000,-0.03400000,0.53700000,0.18000000,0.09000000,-0.17000000,-0.02665484,-0.08691399,-0.05725778,-3.72000000,57.47000000,0.15000000
299,0,-0.84400000,-0.03500000,0.53900000,-0.04000000,-0.00000000,0.16000000,-0.02670967,-0.08691399,-0.05703846,-3.72000000,57.47000000,0.15000000
300,0,-0.84500000,-0.03400000,0.53900000,-0.22000000,-0.03000000,-0.05000000,-0.02701644,-0.08695583,-0.05710818,-3.72000000,57.47000000,0.15000000
301,0,-0.83800000,-0.03600000,0.53700000,0.15000000,-0.14000000,0.14000000,-0.01898714,-0.09444984,-0.04961417,-3.72000000,57.47000000,0.15000000
302,0,-0.84400000,-0.03100000,0.53900000,-0.16000000,0.11000000,0.01000000,-0.01922809,-0.09428418,-0.04959911,-3.72000000,57.47000000,0.15000000
303,0,-0.84500000,-0.03500000,0.53400000,0.15000000,0.08000000,0.08000000,-0.01901446,-0.09417025,-0.04948517,-3.72000000,57.48000000,0.15000000
304,0,-0.84600000,-0.03500000,0.53500000,0.02000000,-0.08000000,-0.04000000,-0.01898622,-0.09428323,-0.04954166,-3.72000000,57.48000000,0.15000000
305,0,-0.84200000,-0.03600000,0.53700000,0.04000000,0.16000000,-0.14000000,-0.01893056,-0.09406059,-0.04973648,-3.72000000,57.47000000,0.15000000
306,0,-0.84400000,-0.03700000,0.53700000,0.16000000,0.13000000,0.13000000,-0.01855430,-0.09375487,-0.04943076,-3.72000000,57.48000000,0.15000000
307,0,-0.84200000,-0.03600000,0.53100000,-0.01000000,0.25000000,-0.07000000,-0.01908770,-0.08041986,-0.05316457,-3.72000000,57.48000000,0.15000000
308,0,-0.84600000,-0.03400000,0.53800000,0.04000000,-0.17000000,0.09000000,-0.01903376,-0.08064912,-0.05304320,-3.72000000,57.48000000,0.15000000
309,0,-0.84100000,-0.03700000,0.53800000,-0.06000000,0.00000000,-0.05000000,-0.01910902,-0.08064912,-0.05310592,-3.72000000,57.48000000,0.16000000
310,0,-0.84200000,-0.03400000,0.53600000,-0.21000000,-0.06000000,-0.05000000,-0.01937560,-0.08072529,-0.05316939,-3.72000000,57.48000000,0.16000000
311,0,-0.84400000,-0.03400000,0.53500000,0.08000000,0.16000000,0.12000000,-0.01927283,-0.08051974,-0.05301522,-3.71000000,57.47000000,0.16000000
312,0,-0.84700000,-0.03300000,0.53000000,0.07000000,0.06000000,0.07000000,-0.01917349,-0.08043459,-0.05291588,-3.71000000,57.48000000,0.16000000
313,0,-0.84200000,-0.04200000,0.53700000,0.25000000,-0.01000000,0.06000000,-0.00570573,-0.08097330,-0.04968362,-3.71000000,57.47000000,0.16000000
314,0,-0.83800000,-0.03400000,0.53700000,0.01000000,-0.02000000,0.01000000,-0.00569474,-0.08099528,-0.04967263,-3.71000000,57.47000000,0.16000000
315,0,-0.84200000,-0.03400000,0.53600000,0.12000000,-0.00000000,-0.10000000,-0.00557408,-0.08099528,-0.04977318,-3.71000000,57.47000000,0.16000000
316,0,-0.84400000,-0.03100000,0.53400000,0.14000000,-0.07000000,0.08000000,-0.00543063,-0.08106700,-0.04969121,-3.71000000,57.48000000,0.16000000
317,0,-0.84100000,-0.02800000,0.53400000,-0.03000000,-0.11000000,0.07000000,-0.00546132,-0.08117950,-0.04961963,-3.71000000,57.48000000,0.16000000
318,0,-0.84500000,-0.03700000,0.53600000,-0.16000000,-0.08000000,0.08000000,-0.00562136,-0.08125952,-0.04953960,-3.71000000,57.48000000,0.16000000
319,0,-0.84300000,-0.03300000,0.53300000,0.25000000,-0.08000000,-0.06000000,0.00821022,-0.08568562,-0.05285918,-3.71000000,57.48000000,0.16000000
320,0,-0.84400000,-0.03600000,0.53400000,0.19000000,0.17000000,0.16000000,0.00841867,-0.08549912,-0.05268365,-3.71000000,57.48000000,0.16000000
321,0,-0.83900000,-0.03300000,0.53400000,0.20000000,-0.02000000,-0.32000000,0.00863770,-0.08552103,-0.05303410,-3.71000000,57.48000000,0.16000000
322,0,-0.84300000,-0.03300000,0.53900000,-0.15000000,-0.05000000,0.01000000,0.00847918,-0.08557386,-0.05302354,-3.71000000,57.48000000,0.16000000
323,0,-0.83900000,-0.03700000,0.53600000,-0.09000000,-0.06000000,-0.02000000,0.00838536,-0.08563641,-0.05304439,-3.71000000,57.48000000,0.16000000
324,0,-0.84400000,-0.03600000,0.53800000,0.08000000,0.07000000,-0.07000000,0.00846689,-0.08556507,-0.05311572,-3.71000000,57.48000000,0.16000000
325,0,-0.84800000,-0.03600000,0.53500000,-0.27000000,0.15000000,-0.20000000,-0.00668578,-0.07714693,-0.06433992,-3.71000000,57.48000000,0.16000000
326,0,-0.84500000,-0.03300000,0.53500000,0.03000000,-0.07000000,-0.08000000,-0.00665477,-0.07721927,-0.06442259,-3.71000000,57.48000000,0.16000000
327,0,-0.84900000,-0.03500000,0.53600000,0.05000000,0.01000000,-0.04000000,-0.00660537,-0.07720939,-0.06446212,-3.71000000,57.48000000,0.16000000
328,0,-0.84300000,-0.04000000,0.53300000,-0.06000000,0.18000000,-0.06000000,-0.00666596,-0.07702762,-0.06452270,-3.71000000,57.48000000,0.16000000
329,0,-0.84200000,-0.03300000,0.53800000,-0.24000000,0.02000000,-0.02000000,-0.00690562,-0.07700765,-0.06454268,-3.71000000,57.48000000,0.16000000
330,0,-0.84100000,-0.03500000,0.53600000,0.08000000,0.16000000,0.01000000,-0.00682590,-0.07684822,-0.06453271,-3.71000000,57.48000000,0.16000000
331,0,-0.83800000,-0.03700000,0.53500000,-0.10000000,-0.03000000,0.02000000,-0.01237940,-0.07851426,-0.06342201,-3.71000000,57.48000000,0.16000000
332,0,-0.84500000,-0.03800000,0.53900000,0.11000000,0.19000000,0.14000000,-0.01226486,-0.07831642,-0.06327623,-3.71000000,57.48000000,0.16000000
333,0,-0.83900000,-0.04000000,0.53900000,-0.05000000,-0.17000000,0.05000000,-0.01231489,-0.07848655,-0.06322620,-3.71000000,57.48000000,0.16000000
334,0,-0.84600000,-0.03300000,0.54000000,-0.14000000,0.05000000,0.22000000,-0.01245510,-0.07843648,-0.06300587,-3.72000000,57.48000000,0.16000000
335,0,-0.84200000,-0.03500000,0.54000000,-0.04000000,0.10000000,-0.13000000,-0.01249479,-0.07833726,-0.06313486,-3.72000000,57.48000000,0.15000000
336,0,-0.84600000,-0.03500000,0.53800000,0.03000000,0.24000000,-0.05000000,-0.01246520,-0.07810057,-0.06318417,-3.72000000,57.48000000,0.15000000
337,0,-0.83700000,-0.03800000,0.53600000,-0.01000000,-0.11000000,0.06000000,-0.01302103,-0.08421469,-0.05984919,-3.72000000,57.48000000,0.15000000
338,0,-0.84100000,-0.03300000,0.53800000,-0.13000000,0.07000000,-0.02000000,-0.01315525,-0.08414241,-0.05986984,-3.72000000,57.48000000,0.15000000
339,0,-0.84200000,-0.02800000,0.53500000,-0.05000000,-0.08000000,0.02000000,-0.01320451,-0.08422123,-0.05985014,-3.72000000,57.48000000,0.15000000
340,0,-0.84000000,-0.03100000,0.53700000,0.07000000,0.09000000,-0.26000000,-0.01313401,-0.08413059,-0.06011201,-3.72000000,57.48000000,0.15000000
341,0,-0.83900000,-0.03500000,0.53800000,-0.08000000,0.02000000,0.09000000,-0.01321359,-0.08411069,-0.06002248,-3.72000000,57.48000000,0.15000000
342,0,-0.84700000,-0.03600000,0.54100000,-0.06000000,-0.12000000,-0.16000000,-0.01327386,-0.08423124,-0.06018320,-3.72000000,57.48000000,0.15000000
343,0,-0.84400000,-0.03700000,0.53900000,-0.03000000,-0.06000000,0.00000000,-0.01496870,-0.08762091,-0.06018320,-3.72000000,57.48000000,0.15000000
344,0,-0.84600000,-0.03900000,0.53500000,-0.14000000,0.15000000,0.05000000,-0.01511331,-0.08746597,-0.06013156,-3.72000000,57.48000000,0.15000000
345,0,-0.84700000,-0.03300000,0.53900000,0.03000000,-0.20000000,-0.16000000,-0.01508310,-0.08766741,-0.06029271,-3.72000000,57.48000000,0.15000000
346,0,-0.84000000,-0.03300000,0.53900000,0.24000000,0.22000000,-0.14000000,-0.01484349,-0.08744777,-0.06043248,-3.72000000,57.48000000,0.15000000
347,0,-0.83900000,-0.03500000,0.53600000,-0.16000000,-0.04000000,-0.12000000,-0.01500113,-0.08748718,-0.06055071,-3.72000000,57.48000000,0.15000000
348,0,-0.84900000,-0.03200000,0.53400000,0.02000000,0.01000000,-0.13000000,-0.01498124,-0.08747724,-0.06068000,-3.72000000,57.48000000,0.15000000
349,0,-0.84200000,-0.03300000,0.53500000,-0.11000000,0.23000000,-0.01000000,-0.02109268,-0.07469877,-0.06123558,-3.72000000,57.48000000,0.15000000
350,0,-0.84300000,-0.03900000,0.54000000,0.06000000,-0.30000000,-0.08000000,-0.02103107,-0.07500679,-0.06131772,-3.72000000,57.48000000,0.15000000
351,0,-0.84100000,-0.03400000,0.53900000,0.23000000,-0.07000000,0.17000000,-0.02079937,-0.07507731,-0.06114646,-3.72000000,57.48000000,0.15000000
352,0,-0.84500000,-0.03200000,0.53300000,0.06000000,0.04000000,0.16000000,-0.02073895,-0.07503703,-0.06098535,-3.72000000,57.48000000,0.15000000
353,0,-0.84600000,-0.03300000,0.53400000,-0.16000000,0.14000000,-0.27000000,-0.02089632,-0.07489933,-0.06125092,-3.72000000,57.48000000,0.15000000
354,0,-0.84300000,-0.03400000,0.53500000,0.10000000,-0.11000000,0.22000000,-0.02079744,-0.07500810,-0.06103338,-3.72000000,57.48000000,0.15000000
355,0,-0.84800000,-0.03500000,0.53800000,-0.07000000,0.13000000,0.08000000,-0.02468614,-0.06778623,-0.05658915,-3.72000000,57.48000000,0.15000000
356,0,-0.84100000,-0.03400000,0.53800000,-0.05000000,-0.06000000,0.08000000,-0.02473849,-0.06784905,-0.05650539,-3.72000000,57.48000000,0.15000000
357,0,-0.84700000,-0.03300000,0.54000000,0.25000000,0.07000000,-0.19000000,-0.02448711,-0.06777867,-0.05669644,-3.72000000,57.48000000,0.15000000
358,0,-0.83900000,-0.03400000,0.53700000,0.05000000,-0.02000000,-0.02000000,-0.02443466,-0.06779965,-0.05671742,-3.72000000,57.48000000,0.15000000
359,0,-0.83900000,-0.03400000,0.54000000,-0.10000000,-0.12000000,-0.22000000,-0.02453495,-0.06791999,-0.05693805,-3.72000000,57.48000000,0.15000000
360,0,-0.84400000,-0.03500000,0.53600000,0.28000000,0.11000000,-0.05000000,-0.02425401,-0.06780962,-0.05698822,-3.72000000,57.48000000,0.15000000
361,0,-0.84300000,-0.03700000,0.53800000,-0.16000000,-0.04000000,0.16000000,-0.03329650,-0.07007025,-0.04794573,-3.72000000,57.48000000,0.15000000
362,0,-0.84100000,-0.03500000,0.53600000,0.07000000,-0.12000000,-0.16000000,-0.03322254,-0.07019703,-0.04811478,-3.72000000,57.48000000,0.15000000
363,0,-0.83900000,-0.03800000,0.53700000,0.08000000,0.04000000,0.17000000,-0.03314323,-0.07015737,-0.04794623,-3.72000000,57.48000000,0.15000000
364,0,-0.84500000,-0.03900000,0.53400000,0.23000000,0.04000000,-0.07000000,-0.03291651,-0.07011794,-0.04801523,-3.72000000,57.48000000,0.15000000
365,0,-0.84600000,-0.03500000,0.53900000,-0.24000000,-0.23000000,0.29000000,-0.03315297,-0.07034455,-0.04772951,-3.72000000,57.48000000,0.15000000
366,0,-0.84200000,-0.03600000,0.53400000,0.05000000,-0.05000000,0.08000000,-0.03310243,-0.07039509,-0.04764865,-3.72000000,57.48000000,0.15000000
367,0,-0.84400000,-0.03700000,0.53400000,-0.01000000,0.10000000,-0.05000000,-0.03365692,-0.06485020,-0.05042109,-3.72000000,57.48000000,0.15000000
368,0,-0.83400000,-0.03700000,0.53600000,0.08000000,-0.21000000,0.02000000,-0.03357150,-0.06507443,-0.05039974,-3.72000000,57.48000000,0.15000000
369,0,-0.84000000,-0.03800000,0.54100000,0.14000000,-0.01000000,0.10000000,-0.03342923,-0.06508459,-0.05029811,-3.72000000,57.48000000,0.15000000
370,0,-0.84300000,-0.03500000,0.53500000,0.11000000,-0.06000000,0.02000000,-0.03331581,-0.06514645,-0.05027749,-3.73000000,57.48000000,0.15000000
371,0,-0.84500000,-0.03700000,0.53900000,0.21000000,-0.18000000,-0.10000000,-0.03310646,-0.06532590,-0.05037719,-3.73000000,57.48000000,0.14000000
372,0,-0.84200000,-0.03500000,0.53400000,0.10000000,-0.17000000,0.05000000,-0.03300512,-0.06549817,-0.05032652,-3.73000000,57.47000000,0.14000000
373,0,-0.84300000,-0.03700000,0.53700000,0.08000000,-0.01000000,-0.23000000,-0.02855954,-0.06605387,-0.06310756,-3.73000000,57.48000000,0.14000000
374,0,-0.84500000,-0.03500000,0.53300000,-0.11000000,0.10000000,-0.30000000,-0.02867597,-0.06594803,-0.06342509,-3.73000000,57.48000000,0.14000000
375,0,-0.84400000,-0.03200000,0.53800000,-0.19000000,0.20000000,0.18000000,-0.02886643,-0.06574754,-0.06324466,-3.73000000,57.48000000,0.14000000
376,0,-0.84200000,-0.03500000,0.53700000,0.02000000,0.05000000,-0.02000000,-0.02884665,-0.06569810,-0.06326443,-3.73000000,57.48000000,0.14000000
377,0,-0.83600000,-0.03500000,0.53100000,0.11000000,0.07000000,0.02000000,-0.02873846,-0.06562925,-0.06324476,-3.73000000,57.48000000,0.14000000
378,0,-0.83800000,-0.03800000,0.53700000,-0.03000000,-0.01000000,-0.02000000,-0.02876852,-0.06563927,-0.06326480,-3.73000000,57.48000000,0.14000000
379,0,-0.84200000,-0.03400000,0.53600000,-0.06000000,-0.21000000,0.03000000,-0.03215135,-0.07747920,-0.06157338,-3.73000000,57.48000000,0.14000000
380,0,-0.84600000,-0.03400000,0.53800000,0.11000000,0.18000000,0.17000000,-0.03203710,-0.07729224,-0.06139681,-3.73000000,57.48000000,0.14000000
381,0,-0.84300000,-0.03700000,0.53800000,0.32000000,-0.08000000,0.17000000,-0.03171862,-0.07737186,-0.06122762,-3.73000000,57.48000000,0.14000000
382,0,-0.84000000,-0.03000000,0.53100000,0.08000000,-0.06000000,-0.05000000,-0.03163972,-0.07743103,-0.06127693,-3.73000000,57.48000000,0.14000000
383,0,-0.83800000,-0.03200000,0.53800000,-0.14000000,-0.32000000,-0.13000000,-0.03178026,-0.07775226,-0.06140743,-3.73000000,57.48000000,0.14000000
384,0,-0.84500000,-0.03600000,0.53200000,-0.04000000,-0.17000000,0.11000000,-0.03182041,-0.07792292,-0.06129700,-3.73000000,57.48000000,0.14000000
385,0,-0.84400000,-0.03400000,0.53700000,-0.05000000,-0.03000000,-0.13000000,-0.03459742,-0.07958912,-0.06851723,-3.73000000,57.48000000,0.14000000
386,0,-0.84000000,-0.03100000,0.53500000,0.12000000,-0.10000000,0.08000000,-0.03447318,-0.07969266,-0.06843440,-3.73000000,57.48000000,0.14000000
387,0,-0.84200000,-0.03400000,0.54200000,0.19000000,0.04000000,0.08000000,-0.03428612,-0.07965327,-0.06835564,-3.73000000,57.48000000,0.14000000
388,0,-0.84000000,-0.03500000,0.53400000,-0.02000000,-0.13000000,-0.14000000,-0.03430575,-0.07978083,-0.06849301,-3.73000000,57.48000000,0.14000000
389,0,-0.84200000,-0.03900000,0.53700000,0.03000000,-0.11000000,0.06000000,-0.03427574,-0.07989086,-0.06843299,-3.73000000,57.48000000,0.14000000
390,0,-0.84200000,-0.03600000,0.53700000,0.09000000,-0.04000000,-0.22000000,-0.03418552,-0.07993096,-0.06865352,-3.73000000,57.48000000,0.14000000
391,0,-0.84600000,-0.04100000,0.53600000,-0.04000000,0.01000000,-0.22000000,-0.03641122,-0.07937453,-0.08089487,-3.73000000,57.48000000,0.14000000
392,0,-0.83900000,-0.04100000,0.53700000,0.11000000,-0.05000000,-0.04000000,-0.03629739,-0.07942627,-0.08093626,-3.73000000,57.48000000,0.14000000
393,0,-0.84500000,-0.03300000,0.53700000,0.06000000,-0.01000000,0.12000000,-0.03623807,-0.07943616,-0.08081763,-3.73000000,57.48000000,0.13000000
394,0,-0.84500000,-0.03000000,0.53700000,-0.07000000,-0.24000000,-0.04000000,-0.03630719,-0.07967313,-0.08085712,-3.73000000,57.48000000,0.13000000
395,0,-0.84700000,-0.03700000,0.54300000,0.26000000,-0.20000000,0.12000000,-0.03604520,-0.07987467,-0.08073621,-3.73000000,57.48000000,0.13000000
396,0,-0.84200000,-0.03000000,0.53800000,0.06000000,-0.17000000,0.03000000,-0.03598498,-0.08004528,-0.08070610,-3.73000000,57.48000000,0.13000000
397,0,-0.84900000,-0.03600000,0.53400000,0.02000000,-0.05000000,0.26000000,-0.03485596,-0.08286783,-0.06602885,-3.73000000,57.48000000,0.13000000
398,0,-0.84000000,-0.03500000,0.53500000,-0.00000000,-0.31000000,-0.02000000,-0.03485596,-0.08320134,-0.06605037,-3.73000000,57.48000000,0.13000000
399,0,-0.84300000,-0.03900000,0.53700000,-0.12000000,-0.19000000,0.02000000,-0.03497708,-0.08339311,-0.06603018,-3.73000000,57.48000000,0.14000000
400,0,-0.84500000,-0.03800000,0.53500000,-0.22000000,-0.05000000,-0.00000000,-0.03520045,-0.08344388,-0.06603018,-3.73000000,57.48000000,0.14000000
401,0,-0.84000000,-0.03500000,0.53200000,0.07000000,-0.19000000,-0.03000000,-0.03512694,-0.08364339,-0.06606168,-3.73000000,57.48000000,0.14000000
402,0,-0.83900000,-0.03600000,0.53400000,0.02000000,0.20000000,0.06000000,-0.03510706,-0.08344458,-0.06600204,-3.73000000,57.48000000,0.14000000
403,0,-0.84000000,-0.03200000,0.53700000,-0.08000000,-0.16000000,-0.14000000,-0.03954047,-0.09231140,-0.07376051,-3.73000000,57.48000000,0.14000000
404,0,-0.84200000,-0.03800000,0.53700000,-0.16000000,0.05000000,0.01000000,-0.03970723,-0.09225929,-0.07375009,-3.73000000,57.48000000,0.13000000
405,0,-0.84200000,-0.03500000,0.53300000,-0.29000000,0.01000000,-0.01000000,-0.03999426,-0.09224939,-0.07375999,-3.73000000,57.48000000,0.13000000
406,0,-0.84100000,-0.03300000,0.53700000,0.09000000,0.04000000,-0.02000000,-0.03990441,-0.09220946,-0.07377995,-3.74000000,57.48000000,0.13000000
407,0,-0.84500000,-0.03800000,0.53600000,-0.08000000,-0.14000000,0.01000000,-0.03998414,-0.09234900,-0.07376999,-3.74000000,57.48000000,0.13000000
408,0,-0.84500000,-0.03500000,0.53400000,0.02000000,-0.13000000,-0.13000000,-0.03996444,-0.09247705,-0.07389804,-3.74000000,57.48000000,0.13000000
409,0,-0.84500000,-0.03700000,0.54100000,0.08000000,-0.14000000,-0.35000000,-0.03550616,-0.10027904,-0.09340303,-3.74000000,57.48000000,0.13000000
410,0,-0.84000000,-0.03300000,0.53700000,-0.14000000,0.13000000,-0.09000000,-0.03565194,-0.10014368,-0.09349674,-3.74000000,57.48000000,0.12000000
411,0,-0.84000000,-0.03700000,0.53500000,0.04000000,-0.08000000,0.34000000,-0.03561230,-0.10022295,-0.09315981,-3.74000000,57.48000000,0.13000000
412,0,-0.84600000,-0.03900000,0.53400000,0.08000000,0.06000000,0.14000000,-0.03553072,-0.10016176,-0.09301704,-3.74000000,57.48000000,0.13000000
413,0,-0.84100000,-0.03400000,0.53500000,0.08000000,-0.08000000,0.05000000,-0.03544944,-0.10024304,-0.09296624,-3.74000000,57.48000000,0.12000000
414,0,-0.84200000,-0.03800000,0.53500000,0.11000000,-0.12000000,-0.02000000,-0.03533996,-0.10036248,-0.09298614,-3.74000000,57.48000000,0.13000000
415,0,-0.84400000,-0.03300000,0.53400000,-0.05000000,-0.05000000,0.22000000,-0.03830401,-0.10332652,-0.07994433,-3.74000000,57.48000000,0.12000000
416,0,-0.84300000,-0.03300000,0.53700000,0.25000000,0.04000000,-0.11000000,-0.03804196,-0.10328460,-0.08005963,-3.74000000,57.48000000,0.12000000
417,0,-0.84500000,-0.03500000,0.53400000,-0.08000000,-0.17000000,0.07000000,-0.03812131,-0.10345322,-0.07999019,-3.74000000,57.48000000,0.12000000
418,0,-0.84200000,-0.03800000,0.53800000,-0.02000000,0.07000000,-0.09000000,-0.03814147,-0.10338265,-0.08008093,-3.75000000,57.48000000,0.12000000
419,0,-0.83900000,-0.03500000,0.53700000,-0.15000000,-0.12000000,-0.04000000,-0.03829162,-0.10350277,-0.08012096,-3.75000000,57.48000000,0.12000000
420,0,-0.84100000,-0.03400000,0.53900000,0.06000000,-0.19000000,-0.09000000,-0.03823178,-0.10369228,-0.08021073,-3.75000000,57.48000000,0.12000000
421,0,-0.83900000,-0.03600000,0.53900000,0.11000000,0.13000000,0.06000000,-0.03812107,-0.10356144,-0.08015034,-3.75000000,57.48000000,0.12000000
422,0,-0.84700000,-0.03700000,0.53700000,0.02000000,0.31000000,-0.01000000,-0.03701077,-0.08635189,-0.08070549,-3.74000000,57.48000000,0.12000000
423,0,-0.84100000,-0.03600000,0.54000000,0.20000000,-0.02000000,0.14000000,-0.03680462,-0.08637251,-0.08056118,-3.74000000,57.48000000,0.12000000
424,0,-0.84500000,-0.04300000,0.53600000,0.24000000,-0.22000000,0.05000000,-0.03656283,-0.08659414,-0.08051081,-3.74000000,57.48000000,0.12000000
425,0,-0.84100000,-0.04000000,0.53600000,0.03000000,-0.12000000,-0.03000000,-0.03653268,-0.08671474,-0.08054096,-3.74000000,57.48000000,0.12000000
426,0,-0.84400000,-0.02900000,0.53300000,0.04000000,-0.17000000,0.29000000,-0.03649289,-0.08688386,-0.08025247,-3.74000000,57.48000000,0.12000000
427,0,-0.84400000,-0.03100000,0.53900000,0.03000000,0.07000000,0.08000000,-0.03646303,-0.08681417,-0.08017283,-3.74000000,57.48000000,0.12000000
428,0,-0.84000000,-0.03600000,0.53500000,0.10000000,0.10000000,0.14000000,-0.03090410,-0.08125524,-0.07239033,-3.74000000,57.48000000,0.12000000
429,0,-0.84400000,-0.03400000,0.53800000,0.03000000,-0.07000000,-0.03000000,-0.03087293,-0.08132796,-0.07242150,-3.74000000,57.48000000,0.12000000
430,0,-0.84400000,-0.03600000,0.53600000,0.05000000,0.04000000,0.22000000,-0.03082248,-0.08128760,-0.07219950,-3.73000000,57.48000000,0.13000000
431,0,-0.84200000,-0.03000000,0.53700000,-0.08000000,0.01000000,0.20000000,-0.03090200,-0.08127766,-0.07200068,-3.73000000,57.48000000,0.13000000
432,0,-0.84200000,-0.03200000,0.53800000,-0.06000000,-0.01000000,-0.06000000,-0.03096107,-0.08128750,-0.07205976,-3.73000000,57.48000000,0.13000000
433,0,-0.84000000,-0.03400000,0.53600000,-0.03000000,0.19000000,0.06000000,-0.03099059,-0.08110058,-0.07200073,-3.73000000,57.48000000,0.13000000
434,0,-0.84400000,-0.03500000,0.53800000,0.08000000,0.07000000,-0.19000000,-0.02647150,-0.07714638,-0.08273356,-3.73000000,57.48000000,0.13000000
435,0,-0.84000000,-0.03600000,0.54000000,-0.00000000,-0.06000000,-0.08000000,-0.02647150,-0.07720934,-0.08281751,-3.73000000,57.47000000,0.13000000
436,0,-0.84300000,-0.03800000,0.53900000,-0.06000000,-0.03000000,-0.10000000,-0.02653330,-0.07724024,-0.08292052,-3.73000000,57.47000000,0.13000000
437,0,-0.84200000,-0.03400000,0.53500000,0.02000000,0.08000000,0.08000000,-0.02651319,-0.07715980,-0.08284008,-3.73000000,57.47000000,0.13000000
438,0,-0.84200000,-0.03600000,0.53600000,0.00000000,0.06000000,-0.02000000,-0.02651319,-0.07710044,-0.08285987,-3.73000000,57.47000000,0.13000000
439,0,-0.84200000,-0.03200000,0.53600000,0.19000000,0.01000000,-0.17000000,-0.02632550,-0.07709056,-0.08302780,-3.73000000,57.47000000,0.13000000
440,0,-0.84500000,-0.03000000,0.53500000,0.21000000,-0.07000000,0.08000000,-0.01467167,-0.08097517,-0.07858825,-3.73000000,57.47000000,0.13000000
441,0,-0.83900000,-0.03200000,0.53600000,-0.11000000,0.07000000,-0.13000000,-0.01478849,-0.08090083,-0.07872631,-3.72000000,57.47000000,0.13000000
442,0,-0.84300000,-0.03600000,0.53400000,0.08000000,0.15000000,0.09000000,-0.01470780,-0.08074954,-0.07863554,-3.72000000,57.47000000,0.13000000
443,0,-0.84500000,-0.03400000,0.53900000,0.16000000,-0.23000000,-0.19000000,-0.01454913,-0.08097763,-0.07882396,-3.72000000,57.47000000,0.14000000
444,0,-0.84100000,-0.03700000,0.53700000,0.41000000,-0.11000000,0.17000000,-0.01414235,-0.08108676,-0.07865529,-3.72000000,57.47000000,0.14000000
445,0,-0.84200000,-0.03700000,0.53700000,0.00000000,0.06000000,-0.03000000,-0.01414235,-0.08102739,-0.07868498,-3.72000000,57.47000000,0.14000000
446,0,-0.84100000,-0.03600000,0.53700000,-0.01000000,-0.15000000,0.26000000,-0.01469939,-0.08938310,-0.06420176,-3.72000000,57.47000000,0.14000000
447,0,-0.84500000,-0.03500000,0.53700000,0.10000000,-0.21000000,0.06000000,-0.01459412,-0.08960417,-0.06413859,-3.71000000,57.47000000,0.14000000
448,0,-0.83900000,-0.03500000,0.53800000,-0.18000000,0.06000000,-0.00000000,-0.01477494,-0.08954389,-0.06413859,-3.71000000,57.47000000,0.14000000
449,0,-0.84500000,-0.03300000,0.53400000,-0.05000000,0.00000000,-0.04000000,-0.01482437,-0.08954389,-0.06417814,-3.71000000,57.47000000,0.14000000
450,0,-0.84200000,-0.03500000,0.53600000,-0.08000000,0.04000000,0.05000000,-0.01490354,-0.08950431,-0.06412866,-3.71000000,57.47000000,0.14000000
451,0,-0.84200000,-0.04000000,0.53500000,-0.04000000,-0.03000000,0.02000000,-0.01494317,-0.08953404,-0.06410884,-3.71000000,57.47000000,0.14000000
452,0,-0.84300000,-0.03800000,0.53900000,0.01000000,-0.08000000,0.06000000,-0.01437960,-0.09404264,-0.06072739,-3.71000000,57.47000000,0.14000000
453,0,-0.84500000,-0.03700000,0.53400000,-0.17000000,0.04000000,0.21000000,-0.01455645,-0.09400103,-0.06050892,-3.71000000,57.47000000,0.14000000
454,0,-0.84000000,-0.03600000,0.53400000,-0.27000000,0.34000000,0.23000000,-0.01482260,-0.09366588,-0.06028221,-3.71000000,57.47000000,0.14000000
455,0,-0.84800000,-0.03300000,0.53900000,-0.13000000,0.04000000,-0.14000000,-0.01495037,-0.09362657,-0.06041981,-3.71000000,57.47000000,0.14000000
456,0,-0.84100000,-0.03600000,0.54100000,-0.07000000,-0.01000000,0.02000000,-0.01501914,-0.09363639,-0.06040016,-3.71000000,57.47000000,0.14000000
457,0,-0.84300000,-0.03100000,0.53600000,0.07000000,-0.19000000,-0.10000000,-0.01494685,-0.09383260,-0.06050343,-3.71000000,57.47000000,0.14000000
458,0,-0.84200000,-0.03400000,0.53500000,-0.01000000,0.04000000,0.24000000,-0.01550255,-0.09160982,-0.04716675,-3.71000000,57.47000000,0.14000000
459,0,-0.84600000,-0.03100000,0.53600000,-0.12000000,-0.06000000,-0.10000000,-0.01562681,-0.09167195,-0.04727030,-3.71000000,57.47000000,0.14000000
460,0,-0.84800000,-0.03500000,0.53300000,0.38000000,-0.14000000,-0.14000000,-0.01525052,-0.09181059,-0.04740894,-3.71000000,57.47000000,0.14000000
461,0,-0.83900000,-0.03500000,0.53600000,0.03000000,0.03000000,0.25000000,-0.01522102,-0.09178109,-0.04716310,-3.71000000,57.47000000,0.14000000
462,0,-0.84600000,-0.04000000,0.54600000,-0.06000000,0.14000000,-0.02000000,-0.01528009,-0.09164326,-0.04718279,-3.71000000,57.47000000,0.14000000
463,0,-0.84200000,-0.03400000,0.53600000,0.30000000,0.02000000,0.07000000,-0.01495318,-0.09162146,-0.04710651,-3.71000000,57.47000000,0.14000000
464,0,-0.84100000,-0.03600000,0.53500000,0.09000000,0.16000000,0.01000000,-0.00994556,-0.08271901,-0.04655011,-3.71000000,57.47000000,0.14000000
465,0,-0.84000000,-0.03200000,0.53900000,0.09000000,0.13000000,0.14000000,-0.00984697,-0.08257661,-0.04639676,-3.71000000,57.47000000,0.14000000
466,0,-0.84600000,-0.02900000,0.53600000,0.10000000,-0.08000000,-0.08000000,-0.00974554,-0.08265776,-0.04647790,-3.71000000,57.48000000,0.15000000
467,0,-0.84200000,-0.03600000,0.53400000,-0.19000000,-0.04000000,-0.06000000,-0.00993332,-0.08269729,-0.04653720,-3.71000000,57.48000000,0.15000000
468,0,-0.84000000,-0.02900000,0.53000000,-0.04000000,0.19000000,-0.09000000,-0.00997287,-0.08250946,-0.04662618,-3.71000000,57.48000000,0.15000000
469,0,-0.83400000,-0.03600000,0.53900000,0.06000000,-0.04000000,0.16000000,-0.00991244,-0.08254975,-0.04646503,-3.71000000,57.48000000,0.15000000
470,0,-0.84200000,-0.02900000,0.53000000,-0.16000000,0.11000000,-0.00000000,-0.01893158,-0.07634908,-0.04646503,-3.71000000,57.48000000,0.15000000
471,0,-0.84300000,-0.03600000,0.53200000,0.00000000,0.12000000,0.19000000,-0.01893158,-0.07621941,-0.04625971,-3.71000000,57.48000000,0.15000000
472,0,-0.84000000,-0.03200000,0.53400000,-0.11000000,0.01000000,0.23000000,-0.01904163,-0.07620941,-0.04602959,-3.70000000,57.48000000,0.15000000
473,0,-0.84100000,-0.03500000,0.53300000,-0.26000000,0.01000000,-0.09000000,-0.01929860,-0.07619952,-0.04611854,-3.71000000,57.48000000,0.15000000
474,0,-0.84400000,-0.03300000,0.53800000,0.14000000,0.00000000,0.02000000,-0.01915817,-0.07619952,-0.04609848,-3.70000000,57.48000000,0.15000000
475,0,-0.83800000,-0.03800000,0.53500000,-0.18000000,-0.10000000,0.11000000,-0.01933731,-0.07629905,-0.04598900,-3.70000000,57.48000000,0.15000000
476,0,-0.84400000,-0.03300000,0.53400000,0.01000000,-0.14000000,-0.05000000,-0.01878361,-0.08405091,-0.04875753,-3.70000000,57.48000000,0.15000000
477,0,-0.84400000,-0.03400000,0.53500000,0.10000000,-0.02000000,0.08000000,-0.01867941,-0.08407175,-0.04867417,-3.70000000,57.48000000,0.15000000
478,0,-0.84200000,-0.03500000,0.53800000,-0.16000000,-0.17000000,0.01000000,-0.01883919,-0.08424151,-0.04866418,-3.70000000,57.48000000,0.15000000
479,0,-0.84100000,-0.03200000,0.53400000,0.14000000,0.01000000,0.08000000,-0.01870112,-0.08423165,-0.04858528,-3.70000000,57.48000000,0.15000000
480,0,-0.84300000,-0.03200000,0.53800000,-0.11000000,-0.07000000,-0.04000000,-0.01881290,-0.08430279,-0.04862593,-3.70000000,57.48000000,0.15000000
481,0,-0.84700000,-0.03600000,0.53800000,-0.02000000,-0.18000000,0.02000000,-0.01883296,-0.08448326,-0.04860588,-3.70000000,57.47000000,0.15000000
482,0,-0.84600000,-0.03300000,0.53500000,0.23000000,-0.07000000,0.19000000,-0.00599993,-0.08838897,-0.03800468,-3.70000000,57.47000000,0.15000000
483,0,-0.84300000,-0.03200000,0.53900000,-0.13000000,-0.16000000,-0.23000000,-0.00613530,-0.08855557,-0.03824418,-3.70000000,57.47000000,0.15000000
484,0,-0.84600000,-0.02900000,0.53600000,-0.07000000,-0.19000000,0.09000000,-0.00620546,-0.08874603,-0.03815396,-3.70000000,57.47000000,0.15000000
485,0,-0.84100000,-0.03600000,0.53700000,-0.11000000,0.14000000,-0.12000000,-0.00631547,-0.08860603,-0.03827396,-3.70000000,57.47000000,0.15000000
486,0,-0.84400000,-0.03000000,0.53600000,0.17000000,0.10000000,-0.07000000,-0.00614356,-0.08850490,-0.03834475,-3.70000000,57.47000000,0.16000000
487,0,-0.84400000,-0.03100000,0.53600000,-0.19000000,0.02000000,0.05000000,-0.00633515,-0.08848473,-0.03829433,-3.70000000,57.47000000,0.15000000
488,0,-0.84200000,-0.03900000,0.53400000,-0.12000000,-0.03000000,0.08000000,-0.01308125,-0.09017126,-0.03379693,-3.70000000,57.47000000,0.15000000
489,0,-0.84500000,-0.03300000,0.53400000,-0.07000000,-0.08000000,-0.15000000,-0.01315383,-0.09025420,-0.03395244,-3.70000000,57.47000000,0.16000000
490,0,-0.84300000,-0.03300000,0.53600000,-0.16000000,-0.07000000,-0.05000000,-0.01331360,-0.09032410,-0.03400237,-3.71000000,57.47000000,0.15000000
491,0,-0.84700000,-0.03800000,0.53900000,-0.03000000,-0.20000000,0.02000000,-0.01334381,-0.09052549,-0.03398223,-3.71000000,57.47000000,0.15000000
492,0,-0.84200000,-0.03700000,0.53200000,0.13000000,-0.07000000,-0.14000000,-0.01321390,-0.09059544,-0.03412214,-3.71000000,57.47000000,0.15000000
493,0,-0.83900000,-0.03500000,0.53400000,0.21000000,-0.01000000,0.20000000,-0.01300274,-0.09060550,-0.03392103,-3.71000000,57.47000000,0.15000000
494,0,-0.84400000,-0.03700000,0.53700000,0.05000000,0.10000000,-0.11000000,-0.01022665,-0.08505332,-0.04002843,-3.71000000,57.47000000,0.15000000
495,0,-0.84200000,-0.02800000,0.53500000,0.28000000,-0.15000000,0.17000000,-0.00993389,-0.08521015,-0.03985069,-3.71000000,57.47000000,0.15000000
496,0,-0.84100000,-0.03500000,0.54000000,0.24000000,-0.11000000,0.26000000,-0.00969285,-0.08532063,-0.03958956,-3.70000000,57.47000000,0.15000000
497,0,-0.83900000,-0.03500000,0.53800000,-0.02000000,0.18000000,-0.01000000,-0.00971302,-0.08513916,-0.03959965,-3.71000000,57.47000000,0.15000000
498,0,-0.84700000,-0.03600000,0.53900000,0.16000000,0.16000000,-0.12000000,-0.00955396,-0.08498011,-0.03971893,-3.70000000,57.47000000,0.15000000
499,0,-0.84600000,-0.03700000,0.53500000,-0.05000000,-0.02000000,0.18000000,-0.00960351,-0.08499993,-0.03954056,-3.70000000,57.47000000,0.15000000
500,0,-0.84200000,-0.03700000,0.53400000,-0.03000000,-0.10000000,0.19000000,-0.01127483,-0.09057100,-0.02895553,-3.70000000,57.47000000,0.15000000
501,0,-0.83700000,-0.03500000,0.53800000,-0.18000000,0.16000000,-0.00000000,-0.01146312,-0.09040363,-0.02895553,-3.70000000,57.47000000,0.15000000
502,0,-0.83900000,-0.03800000,0.53300000,-0.05000000,0.03000000,0.39000000,-0.01151302,-0.09037369,-0.02856636,-3.70000000,57.47000000,0.16000000
503,0,-0.83900000,-0.03900000,0.53500000,-0.06000000,0.16000000,-0.15000000,-0.01157356,-0.09021224,-0.02871772,-3.71000000,57.47000000,0.15000000
504,0,-0.84500000,-0.03600000,0.53600000,0.03000000,0.08000000,-0.20000000,-0.01154361,-0.09013237,-0.02891740,-3.71000000,57.47000000,0.15000000
505,0,-0.84300000,-0.03100000,0.53500000,-0.11000000,0.14000000,-0.24000000,-0.01165340,-0.08999263,-0.02915694,-3.71000000,57.47000000,0.15000000
506,0,-0.84200000,-0.03600000,0.54000000,-0.00000000,0.01000000,-0.27000000,-0.01165340,-0.08942945,-0.04436297,-3.71000000,57.47000000,0.15000000
507,0,-0.83900000,-0.03700000,0.53400000,-0.02000000,-0.31000000,-0.13000000,-0.01167425,-0.08975261,-0.04449849,-3.71000000,57.47000000,0.15000000
508,0,-0.84300000,-0.03400000,0.54000000,-0.26000000,0.19000000,0.02000000,-0.01193848,-0.08955952,-0.04447817,-3.71000000,57.47000000,0.15000000
509,0,-0.83800000,-0.03300000,0.53500000,0.04000000,0.32000000,-0.21000000,-0.01189697,-0.08922746,-0.04469609,-3.71000000,57.48000000,0.15000000
510,0,-0.83900000,-0.03500000,0.53400000,-0.21000000,0.20000000,0.06000000,-0.01211499,-0.08901982,-0.04463380,-3.71000000,57.48000000,0.15000000
511,0,-0.84400000,-0.03300000,0.54000000,-0.14000000,-0.01000000,-0.05000000,-0.01225529,-0.08902985,-0.04468390,-3.71000000,57.48000000,0.15000000
512,0,-0.84400000,-0.03400000,0.53900000,-0.19000000,0.25000000,0.20000000,-0.02278659,-0.07517287,-0.03359833,-3.71000000,57.48000000,0.15000000
513,0,-0.84300000,-0.04000000,0.53100000,-0.16000000,-0.04000000,0.13000000,-0.02295281,-0.07521443,-0.03346327,-3.71000000,57.48000000,0.15000000
514,0,-0.84100000,-0.03700000,0.53700000,0.19000000,0.21000000,-0.01000000,-0.02274845,-0.07498855,-0.03347403,-3.72000000,57.48000000,0.15000000
515,0,-0.84300000,-0.03700000,0.53500000,-0.08000000,0.16000000,-0.09000000,-0.02283026,-0.07482492,-0.03356607,-3.72000000,57.48000000,0.15000000
516,0,-0.84500000,-0.03100000,0.53400000,-0.01000000,-0.04000000,-0.22000000,-0.02284027,-0.07486495,-0.03378623,-3.72000000,57.48000000,0.15000000
517,0,-0.84100000,-0.03400000,0.53200000,0.01000000,0.00000000,0.10000000,-0.02283025,-0.07486495,-0.03368601,-3.72000000,57.48000000,0.15000000
518,0,-0.83700000,-0.03600000,0.53700000,0.09000000,-0.08000000,-0.02000000,-0.01775391,-0.07937725,-0.03481409,-3.72000000,57.48000000,0.15000000
519,0,-0.84600000,-0.03600000,0.53700000,-0.12000000,0.11000000,-0.03000000,-0.01788026,-0.07926143,-0.03484568,-3.71000000,57.48000000,0.15000000
520,0,-0.84100000,-0.03400000,0.53300000,-0.17000000,-0.18000000,0.04000000,-0.01805003,-0.07944117,-0.03480573,-3.71000000,57.48000000,0.15000000
521,0,-0.84400000,-0.03200000,0.53800000,-0.15000000,-0.12000000,-0.02000000,-0.01819717,-0.07955889,-0.03482535,-3.71000000,57.48000000,0.15000000
522,0,-0.84400000,-0.03500000,0.53700000,-0.13000000,0.23000000,-0.07000000,-0.01832494,-0.07933283,-0.03489415,-3.71000000,57.48000000,0.15000000
523,0,-0.84000000,-0.03600000,0.53700000,-0.31000000,0.13000000,-0.17000000,-0.01863273,-0.07920376,-0.03506294,-3.71000000,57.48000000,0.15000000
524,0,-0.84600000,-0.03200000,0.53700000,-0.02000000,-0.12000000,-0.05000000,-0.01974494,-0.08587699,-0.03784346,-3.71000000,57.48000000,0.15000000
525,0,-0.84300000,-0.03700000,0.53400000,0.20000000,0.22000000,0.33000000,-0.01953492,-0.08564597,-0.03749692,-3.71000000,57.48000000,0.15000000
526,0,-0.83900000,-0.03400000,0.53600000,0.02000000,0.14000000,0.35000000,-0.01951492,-0.08550593,-0.03714683,-3.71000000,57.48000000,0.16000000
527,0,-0.84400000,-0.03500000,0.53800000,0.01000000,0.19000000,-0.04000000,-0.01950501,-0.08531778,-0.03718644,-3.71000000,57.48000000,0.16000000
528,0,-0.83800000,-0.03600000,0.53700000,0.13000000,0.13000000,-0.00000000,-0.01937681,-0.08518958,-0.03718644,-3.71000000,57.48000000,0.16000000
529,0,-0.84600000,-0.03300000,0.53200000,-0.03000000,-0.08000000,-0.08000000,-0.01940691,-0.08526986,-0.03726673,-3.71000000,57.48000000,0.15000000
530,0,-0.84300000,-0.03400000,0.53700000,0.26000000,-0.07000000,-0.09000000,-0.00498079,-0.08915382,-0.04226039,-3.71000000,57.48000000,0.16000000
531,0,-0.84400000,-0.03700000,0.54000000,-0.08000000,0.14000000,-0.04000000,-0.00506502,-0.08900641,-0.04230251,-3.71000000,57.48000000,0.16000000
532,0,-0.84500000,-0.03900000,0.53600000,0.15000000,0.05000000,-0.04000000,-0.00491530,-0.08895650,-0.04234243,-3.71000000,57.48000000,0.16000000
533,0,-0.84300000,-0.03700000,0.54000000,-0.03000000,0.02000000,0.35000000,-0.00494502,-0.08893669,-0.04199576,-3.71000000,57.48000000,0.16000000
534,0,-0.84700000,-0.03600000,0.53900000,0.02000000,-0.23000000,-0.02000000,-0.00492513,-0.08916544,-0.04201565,-3.71000000,57.48000000,0.16000000
535,0,-0.84700000,-0.03400000,0.54100000,0.21000000,-0.36000000,0.08000000,-0.00471192,-0.08953094,-0.04193443,-3.71000000,57.48000000,0.16000000
536,0,-0.84800000,-0.03500000,0.53700000,0.02000000,-0.05000000,0.17000000,-0.00353815,-0.09246536,-0.03195742,-3.71000000,57.48000000,0.16000000
537,0,-0.84000000,-0.03400000,0.53400000,0.30000000,-0.27000000,-0.10000000,-0.00322698,-0.09274541,-0.03206114,-3.71000000,57.48000000,0.16000000
538,0,-0.84300000,-0.04100000,0.53400000,0.00000000,0.09000000,-0.15000000,-0.00322698,-0.09265510,-0.03221165,-3.71000000,57.48000000,0.16000000
539,0,-0.83900000,-0.03600000,0.53400000,0.14000000,-0.37000000,0.07000000,-0.00308695,-0.09302520,-0.03214163,-3.71000000,57.48000000,0.15000000
540,0,-0.84300000,-0.03700000,0.53600000,-0.09000000,-0.08000000,-0.02000000,-0.00317618,-0.09310452,-0.03216146,-3.71000000,57.48000000,0.15000000
541,0,-0.84300000,-0.03700000,0.53600000,0.00000000,0.09000000,0.19000000,-0.00317618,-0.09301516,-0.03197281,-3.71000000,57.48000000,0.15000000
542,0,-0.84200000,-0.03100000,0.53700000,-0.23000000,0.08000000,-0.10000000,-0.00340547,-0.09293540,-0.03207251,-3.71000000,57.48000000,0.15000000
543,0,-0.84500000,-0.03600000,0.53900000,0.18000000,-0.07000000,-0.10000000,0.00674394,-0.09688240,-0.03771107,-3.71000000,57.48000000,0.15000000
544,0,-0.84600000,-0.03200000,0.53600000,-0.07000000,-0.02000000,0.08000000,0.00667127,-0.09690316,-0.03762801,-3.71000000,57.48000000,0.15000000
545,0,-0.83900000,-0.03400000,0.53300000,0.12000000,0.11000000,0.03000000,0.00679021,-0.09679413,-0.03759828,-3.71000000,57.48000000,0.16000000
546,0,-0.84300000,-0.03000000,0.53700000,-0.20000000,0.21000000,-0.11000000,0.00659259,-0.09658663,-0.03770697,-3.71000000,57.48000000,0.16000000
547,0,-0.83900000,-0.03300000,0.53700000,0.23000000,0.10000000,0.14000000,0.00682249,-0.09648667,-0.03756703,-3.71000000,57.48000000,0.16000000
548,0,-0.84500000,-0.03800000,0.53400000,-0.07000000,-0.01000000,-0.10000000,0.00675207,-0.09649673,-0.03766763,-3.71000000,57.48000000,0.16000000
549,0,-0.84300000,-0.03100000,0.53500000,0.07000000,0.01000000,-0.17000000,0.01063629,-0.09594184,-0.04710075,-3.71000000,57.48000000,0.16000000
550,0,-0.84200000,-0.03500000,0.53700000,0.20000000,0.15000000,0.20000000,0.01084822,-0.09578290,-0.04688882,-3.71000000,57.48000000,0.16000000
551,0,-0.84300000,-0.03300000,0.53500000,0.06000000,-0.04000000,0.10000000,0.01090828,-0.09582293,-0.04678872,-3.70000000,57.48000000,0.16000000
552,0,-0.84400000,-0.03300000,0.53900000,-0.09000000,0.02000000,-0.12000000,0.01081714,-0.09580268,-0.04691024,-3.70000000,57.48000000,0.16000000
553,0,-0.84000000,-0.03400000,0.54200000,0.09000000,0.09000000,0.14000000,0.01090768,-0.09571214,-0.04676940,-3.70000000,57.48000000,0.16000000
554,0,-0.84200000,-0.03600000,0.53800000,-0.28000000,0.04000000,-0.21000000,0.01062907,-0.09567234,-0.04697836,-3.70000000,57.48000000,0.16000000
555,0,-0.84300000,-0.03400000,0.53500000,0.01000000,-0.19000000,-0.04000000,0.01118535,-0.10624165,-0.04920348,-3.70000000,57.48000000,0.16000000
556,0,-0.84400000,-0.03600000,0.53500000,-0.08000000,0.02000000,-0.30000000,0.01110270,-0.10622098,-0.04951343,-3.70000000,57.48000000,0.16000000
557,0,-0.83800000,-0.03500000,0.53600000,0.09000000,-0.02000000,0.11000000,0.01119148,-0.10624071,-0.04940492,-3.70000000,57.48000000,0.16000000
558,0,-0.84000000,-0.03700000,0.53600000,-0.14000000,-0.06000000,0.16000000,0.01105318,-0.10629998,-0.04924686,-3.70000000,57.48000000,0.16000000
559,0,-0.84100000,-0.03200000,0.53200000,0.07000000,0.15000000,-0.21000000,0.01112441,-0.10614733,-0.04946057,-3.70000000,57.48000000,0.16000000
560,0,-0.84300000,-0.03800000,0.53500000,0.03000000,-0.03000000,-0.00000000,0.01115673,-0.10617965,-0.04946057,-3.70000000,57.48000000,0.16000000
561,0,-0.84000000,-0.02900000,0.53400000,-0.11000000,-0.20000000,-0.22000000,0.00496394,-0.11743928,-0.06184616,-3.70000000,57.48000000,0.16000000
562,0,-0.83900000,-0.04200000,0.53400000,0.03000000,0.14000000,0.20000000,0.00499508,-0.11729396,-0.06163857,-3.70000000,57.48000000,0.16000000
563,0,-0.83900000,-0.03400000,0.53300000,0.01000000,0.04000000,0.19000000,0.00500507,-0.11725398,-0.06144865,-3.70000000,57.48000000,0.16000000
564,0,-0.84300000,-0.03700000,0.53700000,-0.26000000,-0.20000000,-0.07000000,0.00474308,-0.11745551,-0.06151919,-3.70000000,57.48000000,0.16000000
565,0,-0.83900000,-0.03300000,0.53600000,0.07000000,0.13000000,-0.00000000,0.00481320,-0.11732529,-0.06151919,-3.70000000,57.48000000,0.16000000
566,0,-0.84000000,-0.03300000,0.53600000,-0.01000000,-0.04000000,-0.14000000,0.00480323,-0.11736516,-0.06165873,-3.70000000,57.48000000,0.16000000
567,0,-0.84200000,-0.03400000,0.53600000,-0.06000000,-0.13000000,0.09000000,0.00147045,-0.12458619,-0.05665955,-3.70000000,57.48000000,0.16000000
568,0,-0.83900000,-0.03400000,0.53500000,0.08000000,0.05000000,-0.04000000,0.00155415,-0.12453388,-0.05670140,-3.70000000,57.48000000,0.16000000
569,0,-0.84200000,-0.03500000,0.53500000,0.01000000,0.01000000,0.11000000,0.00156410,-0.12452393,-0.05659195,-3.70000000,57.48000000,0.16000000
570,0,-0.83800000,-0.03300000,0.53800000,-0.08000000,-0.10000000,0.05000000,0.00148528,-0.12462245,-0.05654269,-3.70000000,57.48000000,0.16000000
571,0,-0.84200000,-0.03300000,0.54100000,0.05000000,-0.06000000,-0.00000000,0.00153767,-0.12468531,-0.05654269,-3.70000000,57.48000000,0.16000000
572,0,-0.84000000,-0.03500000,0.53400000,0.11000000,-0.08000000,0.15000000,0.00165208,-0.12476852,-0.05638668,-3.70000000,57.48000000,0.16000000
573,0,-0.84700000,-0.03700000,0.53600000,-0.39000000,0.04000000,0.00000000,-0.02035254,-0.12251164,-0.05638668,-3.70000000,57.48000000,0.17000000
574,0,-0.84300000,-0.02900000,0.53800000,0.09000000,0.07000000,-0.08000000,-0.02025964,-0.12243938,-0.05646925,-3.70000000,57.48000000,0.17000000
575,0,-0.84000000,-0.03200000,0.53400000,0.23000000,0.27000000,0.12000000,-0.02002936,-0.12216905,-0.05634911,-3.70000000,57.48000000,0.17000000
576,0,-0.83700000,-0.03100000,0.53600000,-0.20000000,0.08000000,0.13000000,-0.02022794,-0.12208962,-0.05622003,-3.69000000,57.48000000,0.17000000
577,0,-0.84500000,-0.03800000,0.53600000,0.16000000,0.10000000,-0.19000000,-0.02006953,-0.12199062,-0.05640814,-3.69000000,57.48000000,0.17000000
578,0,-0.83700000,-0.03100000,0.53700000,-0.11000000,-0.10000000,-0.01000000,-0.02017823,-0.12208943,-0.05641802,-3.69000000,57.48000000,0.17000000
579,0,-0.84300000,-0.03400000,0.53800000,0.20000000,0.04000000,-0.11000000,-0.00906852,-0.11986749,-0.06252836,-3.69000000,57.48000000,0.17000000
580,0,-0.84000000,-0.03100000,0.53300000,-0.01000000,-0.06000000,0.14000000,-0.00907926,-0.11993193,-0.06237800,-3.69000000,57.48000000,0.17000000
581,0,-0.83800000,-0.03600000,0.53700000,-0.17000000,-0.06000000,-0.24000000,-0.00925113,-0.11999259,-0.06262064,-3.69000000,57.48000000,0.17000000
582,0,-0.84400000,-0.03400000,0.53600000,0.10000000,0.02000000,0.06000000,-0.00915155,-0.11997267,-0.06256090,-3.69000000,57.48000000,0.17000000
583,0,-0.84400000,-0.03700000,0.53500000,-0.01000000,-0.03000000,0.04000000,-0.00916141,-0.12000224,-0.06252148,-3.69000000,57.48000000,0.17000000
584,0,-0.84400000,-0.03700000,0.53800000,-0.05000000,-0.08000000,-0.04000000,-0.00921074,-0.12008117,-0.06256095,-3.69000000,57.48000000,0.17000000
585,0,-0.84400000,-0.03500000,0.53500000,-0.03000000,-0.08000000,0.15000000,-0.01087672,-0.12452378,-0.05423106,-3.69000000,57.48000000,0.17000000
586,0,-0.84400000,-0.03600000,0.53600000,0.08000000,0.15000000,-0.12000000,-0.01079378,-0.12436826,-0.05435547,-3.69000000,57.48000000,0.17000000
587,0,-0.84300000,-0.03600000,0.53800000,-0.15000000,-0.15000000,-0.03000000,-0.01094210,-0.12451659,-0.05438514,-3.69000000,57.48000000,0.17000000
588,0,-0.84200000,-0.03800000,0.53000000,0.06000000,-0.03000000,0.04000000,-0.01088162,-0.12454683,-0.05434481,-3.69000000,57.48000000,0.17000000
589,0,-0.84200000,-0.03200000,0.53400000,-0.17000000,0.33000000,-0.04000000,-0.01105065,-0.12421871,-0.05438458,-3.69000000,57.48000000,0.17000000
590,0,-0.84100000,-0.03800000,0.53600000,-0.08000000,0.03000000,-0.17000000,-0.01113017,-0.12418889,-0.05455358,-3.69000000,57.49000000,0.17000000
591,0,-0.84700000,-0.03400000,0.53200000,-0.13000000,-0.11000000,0.14000000,-0.01847763,-0.13040597,-0.04664093,-3.69000000,57.49000000,0.17000000
592,0,-0.84500000,-0.02700000,0.53700000,-0.07000000,0.06000000,-0.07000000,-0.01855092,-0.13034315,-0.04671422,-3.69000000,57.49000000,0.17000000
593,0,-0.84700000,-0.03900000,0.53600000,-0.21000000,0.21000000,-0.01000000,-0.01875937,-0.13013469,-0.04672415,-3.69000000,57.49000000,0.18000000
594,0,-0.84500000,-0.04000000,0.53600000,-0.05000000,-0.05000000,-0.04000000,-0.01880905,-0.13018437,-0.04676389,-3.69000000,57.49000000,0.17000000
595,0,-0.84600000,-0.03600000,0.53700000,-0.28000000,0.04000000,0.09000000,-0.01908426,-0.13014506,-0.04667543,-3.70000000,57.49000000,0.17000000
596,0,-0.84300000,-0.03200000,0.53800000,-0.06000000,0.07000000,0.02000000,-0.01914371,-0.13007569,-0.04665561,-3.70000000,57.49000000,0.17000000
597,0,-0.84200000,-0.03600000,0.53300000,-0.10000000,0.10000000,0.20000000,-0.02469840,-0.12452100,-0.03554624,-3.70000000,57.49000000,0.17000000
598,0,-0.84100000,-0.03500000,0.53300000,0.04000000,-0.04000000,0.03000000,-0.02465715,-0.12456225,-0.03551530,-3.69000000,57.49000000,0.17000000
599,0,-0.84600000,-0.03700000,0.53800000,-0.08000000,0.06000000,0.00000000,-0.02473744,-0.12450204,-0.03551530,-3.70000000,57.49000000,0.17000000
600,0,-0.84300000,-0.02900000,0.53500000,0.05000000,-0.24000000,-0.00000000,-0.02468510,-0.12475326,-0.03551530,-3.70000000,57.49000000,0.17000000
601,0,-0.84200000,-0.03300000,0.53500000,-0.01000000,0.06000000,-0.05000000,-0.02469520,-0.12469264,-0.03556582,-3.69000000,57.49000000,0.17000000
602,0,-0.84200000,-0.03600000,0.54100000,-0.07000000,0.13000000,0.17000000,-0.02476492,-0.12456316,-0.03539650,-3.69000000,57.49000000,0.17000000
603,0,-0.84500000,-0.03400000,0.53600000,-0.09000000,0.21000000,-0.09000000,-0.02975882,-0.11291074,-0.04039040,-3.69000000,57.49000000,0.17000000
604,0,-0.84800000,-0.03400000,0.53600000,0.10000000,-0.10000000,0.01000000,-0.02965483,-0.11301473,-0.04038000,-3.69000000,57.49000000,0.17000000
605,0,-0.84000000,-0.03600000,0.53900000,-0.04000000,-0.15000000,-0.19000000,-0.02969495,-0.11316516,-0.04057055,-3.69000000,57.49000000,0.17000000
606,0,-0.84200000,-0.03300000,0.53800000,0.05000000,0.24000000,0.01000000,-0.02964548,-0.11292773,-0.04056066,-3.69000000,57.48000000,0.17000000
607,0,-0.84300000,-0.03600000,0.53800000,0.03000000,0.11000000,0.07000000,-0.02961593,-0.11281935,-0.04049169,-3.69000000,57.49000000,0.17000000
608,0,-0.84500000,-0.03200000,0.53700000,0.17000000,0.01000000,-0.19000000,-0.02944754,-0.11280944,-0.04067988,-3.69000000,57.49000000,0.17000000
609,0,-0.84400000,-0.03300000,0.53600000,-0.14000000,-0.18000000,-0.22000000,-0.03736826,-0.12299323,-0.05312673,-3.69000000,57.48000000,0.17000000
610,0,-0.84200000,-0.03300000,0.53400000,0.30000000,0.00000000,-0.03000000,-0.03704422,-0.12299323,-0.05315914,-3.69000000,57.48000000,0.17000000
611,0,-0.84400000,-0.03400000,0.53600000,0.04000000,-0.23000000,0.17000000,-0.03700380,-0.12322565,-0.05298735,-3.69000000,57.48000000,0.17000000
612,0,-0.84500000,-0.03000000,0.53600000,0.18000000,0.11000000,-0.06000000,-0.03682680,-0.12311748,-0.05304635,-3.69000000,57.48000000,0.17000000
613,0,-0.84700000,-0.03500000,0.53600000,0.01000000,0.12000000,-0.03000000,-0.03681691,-0.12299882,-0.05307601,-3.69000000,57.48000000,0.17000000
614,0,-0.84200000,-0.03400000,0.53700000,-0.18000000,0.01000000,-0.09000000,-0.03699773,-0.12298878,-0.05316642,-3.69000000,57.48000000,0.17000000
615,0,-0.84000000,-0.03400000,0.53400000,-0.06000000,-0.24000000,-0.05000000,-0.04032574,-0.13630080,-0.05593976,-3.69000000,57.48000000,0.17000000
616,0,-0.84100000,-0.03300000,0.53700000,0.17000000,0.19000000,-0.10000000,-0.04014597,-0.13609988,-0.05604551,-3.69000000,57.48000000,0.17000000
617,0,-0.84600000,-0.03300000,0.53800000,0.16000000,0.02000000,0.13000000,-0.03998707,-0.13608001,-0.05591641,-3.69000000,57.48000000,0.17000000
618,0,-0.84400000,-0.03400000,0.53600000,0.09000000,0.08000000,0.00000000,-0.03989867,-0.13600144,-0.05591641,-3.69000000,57.48000000,0.17000000
619,0,-0.84100000,-0.03200000,0.53400000,-0.04000000,0.04000000,0.01000000,-0.03993792,-0.13596219,-0.05590659,-3.69000000,57.48000000,0.17000000
620,0,-0.84700000,-0.04000000,0.53500000,-0.05000000,-0.15000000,0.07000000,-0.03999162,-0.13612329,-0.05583142,-3.69000000,57.48000000,0.17000000
621,0,-0.84100000,-0.03500000,0.53400000,0.05000000,-0.11000000,-0.02000000,-0.03721505,-0.14223174,-0.05694204,-3.69000000,57.48000000,0.17000000
622,0,-0.84000000,-0.04000000,0.53900000,0.10000000,-0.15000000,-0.14000000,-0.03711026,-0.14238893,-0.05708876,-3.69000000,57.48000000,0.17000000
623,0,-0.83700000,-0.03400000,0.53500000,0.13000000,-0.22000000,-0.00000000,-0.03698199,-0.14260600,-0.05708876,-3.69000000,57.48000000,0.17000000
624,0,-0.85000000,-0.03400000,0.53400000,0.10000000,-0.06000000,-0.16000000,-0.03688370,-0.14266497,-0.05724602,-3.69000000,57.48000000,0.17000000
625,0,-0.84500000,-0.03600000,0.53700000,0.05000000,0.05000000,0.13000000,-0.03683465,-0.14261592,-0.05711849,-3.69000000,57.48000000,0.17000000
626,0,-0.84100000,-0.03500000,0.53800000,-0.21000000,0.01000000,0.06000000,-0.03704456,-0.14260593,-0.05705852,-3.69000000,57.48000000,0.17000000
627,0,-0.84300000,-0.03400000,0.53700000,0.19000000,0.11000000,-0.10000000,-0.02630706,-0.13638948,-0.06270984,-3.69000000,57.48000000,0.17000000
628,0,-0.84200000,-0.03500000,0.53500000,-0.09000000,0.22000000,0.05000000,-0.02640023,-0.13616171,-0.06265807,-3.69000000,57.48000000,0.17000000
629,0,-0.84400000,-0.04000000,0.53800000,-0.27000000,-0.09000000,-0.28000000,-0.02668421,-0.13625637,-0.06295256,-3.69000000,57.48000000,0.16000000
630,0,-0.84200000,-0.03600000,0.53500000,0.01000000,0.01000000,0.05000000,-0.02667327,-0.13624543,-0.06289787,-3.69000000,57.48000000,0.16000000
631,0,-0.83900000,-0.03200000,0.53900000,-0.01000000,0.02000000,0.20000000,-0.02668390,-0.13622417,-0.06268532,-3.69000000,57.48000000,0.16000000
632,0,-0.84000000,-0.03900000,0.53800000,-0.23000000,-0.09000000,-0.08000000,-0.02691566,-0.13631486,-0.06276593,-3.69000000,57.48000000,0.16000000
633,0,-0.84300000,-0.03100000,0.53400000,-0.03000000,0.28000000,0.02000000,-0.02857473,-0.12083023,-0.06165989,-3.69000000,57.48000000,0.16000000
634,0,-0.84300000,-0.03400000,0.53800000,-0.03000000,0.15000000,0.14000000,-0.02860602,-0.12067379,-0.06151388,-3.69000000,57.48000000,0.16000000
635,0,-0.84000000,-0.03500000,0.53100000,0.01000000,0.07000000,-0.14000000,-0.02859608,-0.12060424,-0.06165298,-3.69000000,57.48000000,0.16000000
636,0,-0.84800000,-0.03800000,0.53700000,-0.10000000,-0.00000000,-0.12000000,-0.02869418,-0.12060424,-0.06177069,-3.69000000,57.48000000,0.16000000
637,0,-0.84200000,-0.03400000,0.53500000,-0.03000000,-0.03000000,-0.35000000,-0.02872401,-0.12063408,-0.06211878,-3.70000000,57.48000000,0.16000000
638,0,-0.84400000,-0.03700000,0.53700000,0.13000000,-0.09000000,0.02000000,-0.02859547,-0.12072307,-0.06209901,-3.70000000,57.48000000,0.16000000
639,0,-0.84200000,-0.04000000,0.53800000,-0.03000000,0.12000000,-0.24000000,-0.03026231,-0.11405567,-0.07543380,-3.70000000,57.48000000,0.16000000
640,0,-0.83800000,-0.03400000,0.53700000,-0.17000000,-0.05000000,-0.03000000,-0.03043876,-0.11410757,-0.07546494,-3.70000000,57.48000000,0.15000000
641,0,-0.83900000,-0.03600000,0.53300000,0.14000000,0.19000000,0.08000000,-0.03029936,-0.11391838,-0.07538528,-3.70000000,57.48000000,0.16000000
642,0,-0.84400000,-0.03300000,0.53500000,-0.02000000,-0.18000000,0.01000000,-0.03031906,-0.11409564,-0.07537543,-3.70000000,57.48000000,0.15000000
643,0,-0.84400000,-0.03600000,0.53300000,-0.07000000,0.08000000,0.08000000,-0.03039008,-0.11401447,-0.07529427,-3.70000000,57.48000000,0.15000000
644,0,-0.84500000,-0.03800000,0.53600000,0.05000000,-0.40000000,0.15000000,-0.03034030,-0.11441267,-0.07514494,-3.70000000,57.48000000,0.15000000
645,0,-0.84300000,-0.03600000,0.53700000,0.13000000,-0.19000000,-0.02000000,-0.02299179,-0.12515280,-0.07627548,-3.70000000,57.48000000,0.15000000
646,0,-0.83800000,-0.03300000,0.53200000,0.04000000,-0.21000000,-0.02000000,-0.02295027,-0.12537077,-0.07629624,-3.70000000,57.48000000,0.15000000
647,0,-0.84400000,-0.03400000,0.54100000,0.01000000,-0.15000000,0.11000000,-0.02294034,-0.12551977,-0.07618697,-3.70000000,57.48000000,0.15000000
648,0,-0.84400000,-0.03100000,0.53500000,0.20000000,0.16000000,0.13000000,-0.02273943,-0.12535904,-0.07605638,-3.70000000,57.48000000,0.16000000
649,0,-0.84300000,-0.03400000,0.53700000,-0.20000000,0.04000000,-0.07000000,-0.02294020,-0.12531889,-0.07612665,-3.70000000,57.48000000,0.16000000
650,0,-0.83800000,-0.03200000,0.53600000,-0.10000000,0.11000000,-0.16000000,-0.02303910,-0.12521009,-0.07628490,-3.70000000,57.48000000,0.16000000
651,0,-0.84700000,-0.03500000,0.53600000,-0.22000000,-0.12000000,0.23000000,-0.03525574,-0.13187371,-0.06351296,-3.70000000,57.48000000,0.16000000
652,0,-0.84000000,-0.03900000,0.53400000,0.07000000,-0.05000000,0.24000000,-0.03518329,-0.13192547,-0.06326454,-3.70000000,57.48000000,0.16000000
653,0,-0.84600000,-0.03000000,0.53700000,-0.15000000,-0.07000000,0.22000000,-0.03533533,-0.13199642,-0.06304154,-3.70000000,57.48000000,0.16000000
654,0,-0.84200000,-0.03000000,0.53500000,-0.06000000,-0.39000000,-0.10000000,-0.03539592,-0.13239025,-0.06314252,-3.70000000,57.48000000,0.16000000
655,0,-0.84100000,-0.03400000,0.53400000,0.13000000,0.02000000,0.02000000,-0.03526622,-0.13237029,-0.06312257,-3.70000000,57.48000000,0.16000000
656,0,-0.84000000,-0.03500000,0.53700000,-0.04000000,-0.16000000,-0.08000000,-0.03530606,-0.13252965,-0.06320225,-3.70000000,57.48000000,0.16000000
657,0,-0.84500000,-0.03500000,0.53600000,0.20000000,0.23000000,0.13000000,-0.02417547,-0.11972947,-0.05596737,-3.70000000,57.48000000,0.16000000
658,0,-0.84200000,-0.03400000,0.53600000,0.01000000,0.01000000,-0.07000000,-0.02416503,-0.11971903,-0.05604044,-3.70000000,57.48000000,0.16000000
659,0,-0.83900000,-0.03700000,0.53400000,-0.22000000,-0.22000000,0.06000000,-0.02438152,-0.11993552,-0.05598139,-3.70000000,57.48000000,0.16000000
660,0,-0.84100000,-0.03800000,0.53500000,0.12000000,0.22000000,0.29000000,-0.02425972,-0.11971221,-0.05568703,-3.70000000,57.48000000,0.16000000
661,0,-0.84300000,-0.03100000,0.53700000,-0.10000000,-0.00000000,0.14000000,-0.02435991,-0.11971221,-0.05554676,-3.69000000,57.48000000,0.16000000
662,0,-0.84500000,-0.03200000,0.53400000,0.06000000,0.28000000,-0.05000000,-0.02430038,-0.11943440,-0.05559637,-3.69000000,57.48000000,0.16000000
663,0,-0.84100000,-0.03200000,0.53300000,-0.12000000,0.01000000,0.30000000,-0.03142589,-0.11884061,-0.03778261,-3.69000000,57.48000000,0.17000000
664,0,-0.83700000,-0.03200000,0.53500000,-0.21000000,0.03000000,0.31000000,-0.03165021,-0.11880857,-0.03745146,-3.69000000,57.48000000,0.17000000
665,0,-0.84300000,-0.03600000,0.53700000,0.01000000,-0.23000000,0.30000000,-0.03164011,-0.11904093,-0.03714837,-3.69000000,57.48000000,0.17000000
666,0,-0.84200000,-0.03600000,0.53800000,0.20000000,-0.33000000,0.14000000,-0.03143238,-0.11938369,-0.03700296,-3.69000000,57.48000000,0.17000000
667,0,-0.84000000,-0.03200000,0.53800000,0.06000000,0.22000000,-0.08000000,-0.03137077,-0.11915781,-0.03708510,-3.69000000,57.48000000,0.17000000
668,0,-0.84600000,-0.03400000,0.54000000,-0.26000000,-0.09000000,0.25000000,-0.03163084,-0.11924783,-0.03683503,-3.69000000,57.48000000,0.17000000
669,0,-0.84200000,-0.03600000,0.54100000,0.01000000,0.04000000,-0.04000000,-0.03162086,-0.11920789,-0.03687498,-3.69000000,57.48000000,0.17000000
670,0,-0.84600000,-0.03100000,0.53500000,0.14000000,-0.13000000,0.08000000,-0.02386583,-0.12640899,-0.03244353,-3.69000000,57.48000000,0.17000000
671,0,-0.84400000,-0.04000000,0.53600000,0.12000000,-0.16000000,0.16000000,-0.02374153,-0.12657471,-0.03227780,-3.69000000,57.48000000,0.17000000
672,0,-0.83800000,-0.03700000,0.53600000,-0.08000000,-0.06000000,0.06000000,-0.02382163,-0.12663479,-0.03221773,-3.69000000,57.48000000,0.17000000
673,0,-0.84800000,-0.03200000,0.53800000,-0.11000000,-0.25000000,0.30000000,-0.02393092,-0.12688319,-0.03191965,-3.69000000,57.48000000,0.17000000
674,0,-0.84300000,-0.03200000,0.53200000,-0.05000000,0.10000000,0.22000000,-0.02398051,-0.12678402,-0.03170148,-3.69000000,57.48000000,0.17000000
675,0,-0.83800000,-0.03700000,0.53300000,-0.11000000,-0.10000000,-0.06000000,-0.02408957,-0.12688316,-0.03176097,-3.69000000,57.48000000,0.17000000
676,0,-0.84200000,-0.03800000,0.53200000,-0.05000000,0.09000000,-0.01000000,-0.02687682,-0.12186611,-0.03231842,-3.69000000,57.48000000,0.18000000
677,0,-0.84500000,-0.03600000,0.53500000,0.02000000,-0.11000000,0.11000000,-0.02685565,-0.12198254,-0.03220199,-3.69000000,57.48000000,0.18000000
678,0,-0.83900000,-0.03700000,0.53700000,0.22000000,-0.16000000,-0.08000000,-0.02663428,-0.12214354,-0.03228249,-3.69000000,57.48000000,0.18000000
679,0,-0.84800000,-0.03600000,0.53400000,0.14000000,0.07000000,-0.23000000,-0.02649534,-0.12207407,-0.03251074,-3.69000000,57.48000000,0.18000000
680,0,-0.84400000,-0.03400000,0.53500000,-0.08000000,0.30000000,-0.01000000,-0.02657403,-0.12177900,-0.03252058,-3.69000000,57.48000000,0.17000000
681,0,-0.84000000,-0.03600000,0.53700000,0.00000000,0.15000000,-0.10000000,-0.02657403,-0.12163114,-0.03261915,-3.69000000,57.48000000,0.18000000
682,0,-0.84300000,-0.03400000,0.53600000,-0.03000000,-0.07000000,-0.16000000,-0.02826391,-0.12557419,-0.04163185,-3.69000000,57.48000000,0.17000000
683,0,-0.84100000,-0.03500000,0.53600000,-0.14000000,-0.05000000,0.13000000,-0.02841126,-0.12562682,-0.04149502,-3.69000000,57.48000000,0.17000000
684,0,-0.84100000,-0.03400000,0.53600000,-0.13000000,0.02000000,-0.10000000,-0.02854117,-0.12560683,-0.04159495,-3.69000000,57.48000000,0.17000000
685,0,-0.84500000,-0.03900000,0.53500000,-0.06000000,0.01000000,0.09000000,-0.02860117,-0.12559683,-0.04150495,-3.69000000,57.48000000,0.17000000
686,0,-0.84700000,-0.03300000,0.53900000,-0.03000000,-0.07000000,0.02000000,-0.02863082,-0.12566601,-0.04148518,-3.69000000,57.48000000,0.18000000
687,0,-0.84500000,-0.03200000,0.53500000,0.29000000,-0.13000000,0.24000000,-0.02834136,-0.12579577,-0.04124564,-3.69000000,57.48000000,0.17000000
688,0,-0.84600000,-0.03500000,0.53300000,-0.02000000,-0.17000000,0.22000000,-0.02945189,-0.13523525,-0.02902984,-3.69000000,57.48000000,0.17000000
689,0,-0.84100000,-0.03300000,0.53900000,-0.12000000,-0.38000000,0.36000000,-0.02957793,-0.13563438,-0.02865172,-3.69000000,57.48000000,0.17000000
690,0,-0.85000000,-0.03600000,0.54100000,0.08000000,0.06000000,0.12000000,-0.02949814,-0.13557453,-0.02853203,-3.69000000,57.48000000,0.17000000
691,0,-0.84400000,-0.03800000,0.53500000,-0.06000000,0.05000000,0.13000000,-0.02955868,-0.13552408,-0.02840084,-3.69000000,57.48000000,0.17000000
692,0,-0.83800000,-0.03700000,0.53300000,0.16000000,-0.10000000,0.02000000,-0.02939204,-0.13562823,-0.02838001,-3.69000000,57.48000000,0.18000000
693,0,-0.83600000,-0.03600000,0.53900000,-0.12000000,-0.07000000,0.10000000,-0.02951328,-0.13569895,-0.02827899,-3.69000000,57.48000000,0.17000000
694,0,-0.84400000,-0.03300000,0.53800000,-0.01000000,0.13000000,-0.16000000,-0.03006800,-0.12848759,-0.03715451,-3.69000000,57.47000000,0.17000000
695,0,-0.84100000,-0.03800000,0.53200000,0.06000000,-0.14000000,-0.26000000,-0.03000512,-0.12863430,-0.03742697,-3.69000000,57.47000000,0.17000000
696,0,-0.84300000,-0.03700000,0.54000000,-0.03000000,-0.20000000,-0.23000000,-0.03003544,-0.12883646,-0.03765945,-3.69000000,57.47000000,0.17000000
697,0,-0.84600000,-0.03600000,0.53700000,0.08000000,0.06000000,0.05000000,-0.02995662,-0.12877734,-0.03761019,-3.69000000,57.47000000,0.17000000
698,0,-0.84300000,-0.03800000,0.54100000,0.07000000,-0.25000000,-0.17000000,-0.02988528,-0.12903212,-0.03778343,-3.70000000,57.47000000,0.17000000
699,0,-0.84000000,-0.03300000,0.53400000,0.11000000,-0.12000000,-0.02000000,-0.02977596,-0.12915138,-0.03780331,-3.69000000,57.48000000,0.17000000
700,0,-0.83900000,-0.03700000,0.53200000,-0.03000000,-0.24000000,-0.17000000,-0.03147063,-0.14270870,-0.04740642,-3.70000000,57.47000000,0.17000000
701,0,-0.84600000,-0.03200000,0.54100000,0.02000000,0.24000000,0.18000000,-0.03145003,-0.14246154,-0.04722105,-3.70000000,57.47000000,0.17000000
702,0,-0.84400000,-0.03600000,0.54100000,-0.26000000,-0.10000000,0.04000000,-0.03170570,-0.14255988,-0.04718171,-3.70000000,57.47000000,0.17000000
703,0,-0.84400000,-0.03400000,0.53800000,-0.04000000,0.00000000,0.09000000,-0.03174485,-0.14255988,-0.04709362,-3.69000000,57.47000000,0.17000000
704,0,-0.84400000,-0.03400000,0.54000000,0.02000000,0.06000000,0.16000000,-0.03172523,-0.14250100,-0.04693663,-3.70000000,57.47000000,0.17000000
705,0,-0.83800000,-0.03600000,0.53900000,-0.07000000,-0.21000000,-0.13000000,-0.03179652,-0.14271487,-0.04706902,-3.69000000,57.47000000,0.17000000
706,0,-0.84400000,-0.03600000,0.53800000,-0.08000000,0.07000000,0.12000000,-0.03624652,-0.13882111,-0.04039401,-3.69000000,57.47000000,0.17000000
707,0,-0.84500000,-0.03900000,0.54000000,-0.15000000,-0.10000000,0.10000000,-0.03640318,-0.13892555,-0.04028957,-3.69000000,57.47000000,0.17000000
708,0,-0.84000000,-0.03600000,0.54100000,-0.01000000,-0.14000000,0.11000000,-0.03641317,-0.13906542,-0.04017967,-3.70000000,57.47000000,0.17000000
709,0,-0.84200000,-0.03100000,0.53500000,-0.07000000,-0.13000000,0.18000000,-0.03648197,-0.13919319,-0.04000276,-3.70000000,57.47000000,0.17000000
710,0,-0.84100000,-0.03600000,0.54200000,-0.15000000,-0.04000000,0.24000000,-0.03662983,-0.13923262,-0.03976618,-3.69000000,57.47000000,0.17000000
711,0,-0.84400000,-0.03300000,0.53600000,-0.18000000,0.04000000,0.08000000,-0.03680940,-0.13919272,-0.03968637,-3.69000000,57.47000000,0.17000000
712,0,-0.83900000,-0.03400000,0.53600000,0.27000000,0.03000000,0.16000000,-0.02179540,-0.13752449,-0.03078919,-3.69000000,57.47000000,0.18000000
713,0,-0.84500000,-0.03800000,0.53700000,0.05000000,0.19000000,-0.17000000,-0.02174362,-0.13732774,-0.03096523,-3.69000000,57.47000000,0.17000000
714,0,-0.84100000,-0.03400000,0.53400000,-0.08000000,-0.02000000,0.08000000,-0.02182273,-0.13734751,-0.03088612,-3.69000000,57.47000000,0.17000000
715,0,-0.84400000,-0.03400000,0.53200000,-0.23000000,0.19000000,-0.07000000,-0.02205065,-0.13715923,-0.03095549,-3.69000000,57.47000000,0.18000000
716,0,-0.84500000,-0.03600000,0.53900000,-0.38000000,-0.39000000,-0.16000000,-0.02242604,-0.13754450,-0.03111355,-3.70000000,57.47000000,0.17000000
717,0,-0.84000000,-0.03200000,0.53800000,-0.18000000,-0.08000000,-0.09000000,-0.02261051,-0.13762649,-0.03120579,-3.70000000,57.47000000,0.17000000
718,0,-0.84000000,-0.03300000,0.53400000,0.06000000,-0.16000000,0.08000000,-0.01922413,-0.14665684,-0.02669061,-3.70000000,57.47000000,0.17000000
719,0,-0.84400000,-0.03500000,0.53500000,0.11000000,-0.11000000,0.23000000,-0.01910230,-0.14677867,-0.02643587,-3.70000000,57.47000000,0.17000000
720,0,-0.84400000,-0.03300000,0.53900000,0.15000000,-0.15000000,-0.19000000,-0.01891581,-0.14696516,-0.02667208,-3.70000000,57.47000000,0.17000000
721,0,-0.83800000,-0.03500000,0.53400000,-0.16000000,0.02000000,-0.02000000,-0.01909562,-0.14694268,-0.02669455,-3.70000000,57.47000000,0.17000000
722,0,-0.83900000,-0.03500000,0.53500000,-0.14000000,-0.16000000,-0.09000000,-0.01924336,-0.14711154,-0.02678954,-3.70000000,57.47000000,0.17000000
723,0,-0.83700000,-0.03400000,0.53700000,0.21000000,0.09000000,-0.03000000,-0.01903176,-0.14702085,-0.02681977,-3.70000000,57.47000000,0.17000000
724,0,-0.84400000,-0.03500000,0.53900000,-0.19000000,0.20000000,-0.13000000,-0.02948093,-0.13602172,-0.03396920,-3.70000000,57.47000000,0.17000000
725,0,-0.84200000,-0.03200000,0.53800000,0.04000000,0.08000000,0.09000000,-0.02943919,-0.13593825,-0.03387529,-3.70000000,57.47000000,0.17000000
726,0,-0.84500000,-0.03700000,0.53900000,0.30000000,-0.03000000,0.03000000,-0.02913961,-0.13596820,-0.03384533,-3.70000000,57.47000000,0.18000000
727,0,-0.83700000,-0.03900000,0.54000000,-0.23000000,-0.17000000,-0.01000000,-0.02936622,-0.13613570,-0.03385519,-3.69000000,57.47000000,0.18000000
728,0,-0.84200000,-0.03700000,0.53300000,-0.05000000,-0.00000000,-0.29000000,-0.02941655,-0.13613570,-0.03414713,-3.70000000,57.47000000,0.18000000
729,0,-0.84600000,-0.03400000,0.53600000,-0.16000000,0.22000000,-0.12000000,-0.02957587,-0.13591663,-0.03426662,-3.70000000,57.47000000,0.18000000
730,0,-0.84300000,-0.03700000,0.53800000,0.25000000,-0.03000000,-0.29000000,-0.01566847,-0.13758552,-0.05039920,-3.70000000,57.47000000,0.17000000
731,0,-0.83800000,-0.03500000,0.53700000,-0.11000000,0.06000000,-0.10000000,-0.01578230,-0.13752343,-0.05050268,-3.70000000,57.47000000,0.18000000
732,0,-0.84300000,-0.03600000,0.54000000,-0.11000000,-0.08000000,0.07000000,-0.01589068,-0.13760225,-0.05043372,-3.69000000,57.47000000,0.18000000
733,0,-0.84600000,-0.03700000,0.53500000,-0.08000000,-0.14000000,-0.12000000,-0.01597305,-0.13774639,-0.05055727,-3.70000000,57.47000000,0.18000000
734,0,-0.83900000,-0.02700000,0.53800000,0.19000000,-0.17000000,-0.05000000,-0.01577779,-0.13792110,-0.05060865,-3.70000000,57.47000000,0.18000000
735,0,-0.84800000,-0.03600000,0.53700000,-0.13000000,0.08000000,-0.09000000,-0.01591254,-0.13783818,-0.05070194,-3.70000000,57.47000000,0.18000000
736,0,-0.84100000,-0.03400000,0.53300000,0.02000000,0.01000000,0.05000000,-0.01474247,-0.13725315,-0.04777678,-3.70000000,57.47000000,0.18000000
737,0,-0.84000000,-0.03200000,0.53800000,-0.14000000,-0.17000000,0.20000000,-0.01490387,-0.13744913,-0.04754620,-3.70000000,57.47000000,0.18000000
738,0,-0.84500000,-0.03800000,0.53400000,0.19000000,-0.19000000,0.06000000,-0.01415383,-0.13819918,-0.04730935,-3.70000000,57.47000000,0.18000000
739,0,-0.84100000,-0.03100000,0.53700000,0.06000000,-0.13000000,-0.01000000,-0.01408280,-0.13835308,-0.04732119,-3.70000000,57.47000000,0.18000000
740,0,-0.83900000,-0.03200000,0.53500000,-0.18000000,0.11000000,-0.12000000,-0.01427885,-0.13823327,-0.04745189,-3.70000000,57.47000000,0.17000000
741,0,-0.84300000,-0.03600000,0.53700000,0.01000000,0.02000000,-0.01000000,-0.01423937,-0.13815429,-0.04749138,-3.70000000,57.47000000,0.17000000
742,0,-0.84600000,-0.03100000,0.53600000,-0.22000000,-0.12000000,0.02000000,-0.02462941,-0.14382159,-0.04654683,-3.70000000,57.47000000,0.18000000
743,0,-0.84000000,-0.03800000,0.53900000,0.15000000,-0.02000000,-0.12000000,-0.02417617,-0.14388202,-0.04690942,-3.70000000,57.47000000,0.18000000
744,0,-0.84300000,-0.03200000,0.53700000,-0.04000000,-0.02000000,0.20000000,-0.02424289,-0.14391538,-0.04657585,-3.70000000,57.47000000,0.18000000
745,0,-0.84400000,-0.03400000,0.53600000,-0.10000000,0.12000000,-0.30000000,-0.02435858,-0.14377655,-0.04692292,-3.70000000,57.47000000,0.18000000
746,0,-0.84000000,-0.03100000,0.53900000,-0.00000000,-0.07000000,-0.14000000,-0.02435858,-0.14385428,-0.04707838,-3.70000000,57.47000000,0.18000000
747,0,-0.84300000,-0.02900000,0.53500000,0.12000000,-0.18000000,0.06000000,-0.02422281,-0.14405793,-0.04701050,-3.70000000,57.47000000,0.18000000
748,0,-0.84400000,-0.03400000,0.53900000,-0.15000000,-0.25000000,0.01000000,-0.03212562,-0.15722927,-0.04648364,-3.70000000,57.47000000,0.18000000
749,0,-0.83800000,-0.03400000,0.53600000,-0.02000000,0.04000000,-0.22000000,-0.03215117,-0.15717816,-0.04676476,-3.70000000,57.47000000,0.18000000
750,0,-0.84300000,-0.03100000,0.53800000,0.15000000,-0.11000000,-0.04000000,-0.03148561,-0.15766624,-0.04694224,-3.70000000,57.47000000,0.18000000
751,0,-0.84300000,-0.03900000,0.54000000,-0.09000000,0.08000000,-0.14000000,-0.03159834,-0.15756604,-0.04711759,-3.70000000,57.47000000,0.17000000
752,0,-0.84400000,-0.02500000,0.53500000,-0.28000000,0.16000000,0.07000000,-0.03263017,-0.15697642,-0.04685963,-3.70000000,57.47000000,0.17000000
753,0,-0.84100000,-0.03000000,0.53800000,0.02000000,0.05000000,0.15000000,-0.03258971,-0.15687529,-0.04655624,-3.70000000,57.47000000,0.17000000
754,0,-0.84500000,-0.03800000,0.54200000,-0.31000000,-0.14000000,0.31000000,-0.04767369,-0.16368741,-0.03147226,-3.70000000,57.47000000,0.17000000
755,0,-0.83900000,-0.03500000,0.53300000,0.19000000,0.02000000,-0.04000000,-0.04746163,-0.16366509,-0.03151691,-3.70000000,57.47000000,0.18000000
756,0,-0.84600000,-0.04200000,0.53700000,-0.05000000,0.03000000,-0.10000000,-0.04751228,-0.16363470,-0.03161822,-3.70000000,57.47000000,0.17000000
757,0,-0.84600000,-0.03600000,0.53500000,-0.03000000,0.08000000,0.05000000,-0.04754277,-0.16355340,-0.03156741,-3.70000000,57.47000000,0.17000000
758,0,-0.84500000,-0.03400000,0.53500000,0.01000000,-0.02000000,-0.25000000,-0.04753277,-0.16357340,-0.03181742,-3.70000000,57.47000000,0.17000000
759,0,-0.84100000,-0.03200000,0.53700000,0.37000000,0.20000000,0.02000000,-0.04716099,-0.16337244,-0.03179732,-3.70000000,57.47000000,0.17000000
760,0,-0.83800000,-0.03100000,0.53700000,0.10000000,0.21000000,-0.23000000,-0.04163263,-0.15176287,-0.04451256,-3.70000000,57.47000000,0.17000000
761,0,-0.84100000,-0.03700000,0.53500000,-0.09000000,0.12000000,0.06000000,-0.04172607,-0.15163829,-0.04445027,-3.70000000,57.47000000,0.17000000
762,0,-0.84200000,-0.03600000,0.53500000,0.03000000,0.20000000,-0.17000000,-0.04169574,-0.15143614,-0.04462210,-3.70000000,57.47000000,0.17000000
763,0,-0.84500000,-0.03700000,0.53700000,-0.03000000,0.29000000,0.18000000,-0.04172568,-0.15114675,-0.04444248,-3.70000000,57.47000000,0.18000000
764,0,-0.84600000,-0.03700000,0.53700000,-0.11000000,-0.01000000,-0.21000000,-0.04183421,-0.15115662,-0.04464968,-3.70000000,57.47000000,0.18000000
765,0,-0.83900000,-0.03600000,0.53300000,-0.05000000,-0.06000000,0.10000000,-0.04188462,-0.15121711,-0.04454887,-3.70000000,57.47000000,0.18000000
766,0,-0.84300000,-0.03200000,0.54000000,-0.12000000,0.18000000,0.03000000,-0.04856884,-0.14119078,-0.04287782,-3.70000000,57.47000000,0.17000000
767,0,-0.84400000,-0.03200000,0.53700000,0.04000000,-0.12000000,0.18000000,-0.04852735,-0.14131524,-0.04269112,-3.70000000,57.47000000,0.18000000
768,0,-0.84700000,-0.02800000,0.53600000,-0.05000000,0.03000000,0.13000000,-0.04857735,-0.14128524,-0.04256111,-3.70000000,57.47000000,0.17000000
769,0,-0.84800000,-0.03700000,0.53600000,-0.05000000,0.14000000,-0.11000000,-0.04862658,-0.14114741,-0.04266941,-3.70000000,57.47000000,0.17000000
770,0,-0.84300000,-0.03500000,0.53500000,0.33000000,-0.16000000,-0.28000000,-0.04830200,-0.14130478,-0.04294481,-3.70000000,57.47000000,0.17000000
771,0,-0.84600000,-0.03300000,0.53400000,-0.04000000,-0.19000000,-0.16000000,-0.04834130,-0.14149148,-0.04310203,-3.70000000,57.47000000,0.17000000
772,0,-0.84500000,-0.03400000,0.53800000,-0.21000000,0.16000000,0.18000000,-0.06019205,-0.13246234,-0.03294425,-3.70000000,57.47000000,0.17000000
773,0,-0.84100000,-0.03400000,0.53800000,0.10000000,0.04000000,-0.25000000,-0.06006465,-0.13241138,-0.03326275,-3.70000000,57.47000000,0.17000000
774,0,-0.84400000,-0.03400000,0.53600000,-0.02000000,0.09000000,-0.28000000,-0.06008625,-0.13231419,-0.03356512,-3.70000000,57.47000000,0.17000000
775,0,-0.84500000,-0.03400000,0.53600000,-0.22000000,-0.02000000,-0.16000000,-0.06030877,-0.13233442,-0.03372695,-3.71000000,57.47000000,0.17000000
776,0,-0.84000000,-0.03200000,0.53700000,0.06000000,-0.01000000,-0.01000000,-0.06024923,-0.13234434,-0.03373688,-3.70000000,57.47000000,0.17000000
777,0,-0.84600000,-0.03100000,0.53500000,-0.14000000,-0.00000000,0.13000000,-0.06038967,-0.13234434,-0.03360647,-3.70000000,57.47000000,0.17000000
778,0,-0.84600000,-0.03400000,0.53500000,0.11000000,0.03000000,-0.01000000,-0.05431665,-0.13068807,-0.03415856,-3.70000000,57.47000000,0.17000000
779,0,-0.84300000,-0.03800000,0.53400000,0.15000000,0.19000000,-0.07000000,-0.05415477,-0.13048302,-0.03423411,-3.70000000,57.47000000,0.17000000
780,0,-0.84600000,-0.03300000,0.53800000,0.07000000,0.17000000,0.13000000,-0.05408290,-0.13030848,-0.03410063,-3.70000000,57.48000000,0.17000000
781,0,-0.84100000,-0.03400000,0.53700000,-0.16000000,0.16000000,0.11000000,-0.05424260,-0.13014878,-0.03399084,-3.70000000,57.48000000,0.17000000
782,0,-0.83600000,-0.03400000,0.53500000,-0.10000000,0.15000000,0.10000000,-0.05435762,-0.12997624,-0.03387581,-3.70000000,57.48000000,0.17000000
783,0,-0.84100000,-0.03800000,0.53800000,-0.14000000,0.01000000,-0.12000000,-0.05455904,-0.12996185,-0.03404846,-3.70000000,57.48000000,0.17000000
784,0,-0.84100000,-0.03800000,0.54100000,-0.12000000,-0.02000000,-0.08000000,-0.06151214,-0.13112070,-0.03868386,-3.70000000,57.47000000,0.17000000
785,0,-0.83500000,-0.04100000,0.53700000,-0.11000000,-0.04000000,-0.15000000,-0.06162616,-0.13116216,-0.03883934,-3.71000000,57.47000000,0.16000000
786,0,-0.84600000,-0.03100000,0.53400000,0.02000000,-0.08000000,-0.07000000,-0.06160606,-0.13124257,-0.03890969,-3.71000000,57.47000000,0.16000000
787,0,-0.84100000,-0.03400000,0.53900000,0.14000000,0.12000000,-0.32000000,-0.06146642,-0.13112288,-0.03922886,-3.71000000,57.47000000,0.16000000
788,0,-0.84100000,-0.04000000,0.53900000,-0.12000000,-0.03000000,-0.04000000,-0.06158668,-0.13115294,-0.03926895,-3.71000000,57.47000000,0.16000000
789,0,-0.84400000,-0.03900000,0.53800000,0.01000000,-0.16000000,-0.22000000,-0.06157669,-0.13131272,-0.03948864,-3.72000000,57.47000000,0.16000000
790,0,-0.84300000,-0.03000000,0.54000000,0.13000000,0.16000000,0.04000000,-0.06144616,-0.13115207,-0.03944847,-3.72000000,57.47000000,0.16000000
791,0,-0.84600000,-0.03500000,0.53700000,-0.11000000,0.10000000,0.17000000,-0.06764900,-0.12551312,-0.02986227,-3.72000000,57.47000000,0.16000000
792,0,-0.84500000,-0.03800000,0.53700000,0.15000000,0.07000000,-0.04000000,-0.06749342,-0.12544052,-0.02990376,-3.72000000,57.47000000,0.16000000
793,0,-0.83600000,-0.03500000,0.53900000,-0.11000000,-0.03000000,-0.15000000,-0.06760444,-0.12547080,-0.03005516,-3.72000000,57.47000000,0.15000000
794,0,-0.84400000,-0.03500000,0.53500000,0.07000000,-0.04000000,0.04000000,-0.06753486,-0.12551056,-0.03001540,-3.72000000,57.47000000,0.15000000
795,0,-0.84000000,-0.03500000,0.53400000,0.28000000,0.03000000,0.07000000,-0.06725412,-0.12548048,-0.02994521,-3.72000000,57.47000000,0.15000000
796,0,-0.84400000,-0.03600000,0.53700000,-0.04000000,-0.16000000,-0.05000000,-0.06729381,-0.12563926,-0.02999483,-3.72000000,57.47000000,0.15000000
797,0,-0.84500000,-0.03300000,0.53900000,0.01000000,0.09000000,-0.24000000,-0.06673888,-0.12064488,-0.04331320,-3.72000000,57.47000000,0.15000000
798,0,-0.84300000,-0.03800000,0.53900000,0.02000000,0.03000000,-0.19000000,-0.06671831,-0.12061402,-0.04350860,-3.72000000,57.47000000,0.15000000
799,0,-0.84200000,-0.03700000,0.53900000,-0.05000000,-0.16000000,-0.03000000,-0.06676743,-0.12077121,-0.04353807,-3.72000000,57.47000000,0.15000000
800,0,-0.84600000,-0.03600000,0.54200000,0.02000000,0.04000000,0.15000000,-0.06674784,-0.12073202,-0.04339114,-3.72000000,57.47000000,0.15000000
801,0,-0.84000000,-0.03300000,0.53500000,-0.03000000,0.10000000,0.01000000,-0.06677784,-0.12063202,-0.04338114,-3.72000000,57.47000000,0.15000000
802,0,-0.84200000,-0.03400000,0.53800000,0.32000000,-0.12000000,-0.16000000,-0.06645623,-0.12075263,-0.04354195,-3.72000000,57.47000000,0.15000000
803,0,-0.84400000,-0.03700000,0.53800000,0.10000000,-0.25000000,0.03000000,-0.06088006,-0.13469305,-0.04186910,-3.72000000,57.47000000,0.14000000
804,0,-0.84100000,-0.03600000,0.54100000,0.22000000,-0.06000000,-0.02000000,-0.06065161,-0.13475535,-0.04188987,-3.72000000,57.47000000,0.14000000
805,0,-0.84700000,-0.03900000,0.53400000,-0.05000000,-0.18000000,0.17000000,-0.06070075,-0.13493227,-0.04172278,-3.72000000,57.47000000,0.14000000
806,0,-0.84400000,-0.03300000,0.53800000,0.16000000,-0.08000000,-0.18000000,-0.06054380,-0.13501074,-0.04189935,-3.72000000,57.47000000,0.14000000
807,0,-0.84200000,-0.02900000,0.53200000,0.01000000,0.15000000,-0.03000000,-0.06053367,-0.13485873,-0.04192975,-3.72000000,57.47000000,0.14000000
808,0,-0.84400000,-0.03800000,0.53900000,0.02000000,-0.17000000,-0.12000000,-0.06051376,-0.13502797,-0.04204921,-3.72000000,57.47000000,0.14000000
809,0,-0.84600000,-0.03500000,0.53700000,0.08000000,0.04000000,-0.14000000,-0.05600533,-0.13277376,-0.04993896,-3.72000000,57.47000000,0.14000000
810,0,-0.84400000,-0.03500000,0.53300000,0.02000000,-0.08000000,-0.26000000,-0.05598471,-0.13285622,-0.05020696,-3.72000000,57.47000000,0.14000000
811,0,-0.84500000,-0.04100000,0.53500000,0.18000000,-0.02000000,0.03000000,-0.05580231,-0.13287649,-0.05017656,-3.72000000,57.47000000,0.14000000
812,0,-0.84300000,-0.03200000,0.53800000,-0.14000000,0.06000000,-0.06000000,-0.05594505,-0.13281531,-0.05023774,-3.72000000,57.47000000,0.14000000
813,0,-0.84300000,-0.03500000,0.53500000,0.14000000,0.21000000,0.25000000,-0.05580514,-0.13260546,-0.04998791,-3.72000000,57.47000000,0.14000000
814,0,-0.84800000,-0.03300000,0.54000000,0.01000000,-0.05000000,-0.14000000,-0.05579524,-0.13265496,-0.05012651,-3.72000000,57.47000000,0.14000000
815,0,-0.84200000,-0.03500000,0.53900000,0.13000000,0.11000000,0.02000000,-0.04854189,-0.12651750,-0.04901061,-3.72000000,57.47000000,0.14000000
816,0,-0.84700000,-0.03100000,0.53400000,0.08000000,0.22000000,0.03000000,-0.04842950,-0.12620843,-0.04896846,-3.72000000,57.47000000,0.14000000
817,0,-0.84000000,-0.03200000,0.53900000,-0.03000000,0.20000000,0.00000000,-0.04847214,-0.12592412,-0.04896846,-3.72000000,57.47000000,0.14000000
818,0,-0.84300000,-0.03000000,0.53500000,-0.15000000,-0.08000000,0.13000000,-0.04867669,-0.12603321,-0.04879119,-3.72000000,57.47000000,0.14000000
819,0,-0.84100000,-0.03400000,0.53800000,0.15000000,-0.06000000,-0.11000000,-0.04847436,-0.12611414,-0.04893957,-3.72000000,57.47000000,0.14000000
820,0,-0.84100000,-0.03300000,0.53400000,0.05000000,0.07000000,0.15000000,-0.04840444,-0.12601625,-0.04872980,-3.72000000,57.47000000,0.15000000
821,0,-0.84700000,-0.03600000,0.53700000,-0.07000000,0.21000000,-0.09000000,-0.05218302,-0.11468050,-0.05358798,-3.72000000,57.47000000,0.15000000
