Measurement Count,IMU_MODE,Gyro_X,Gyro_Y,Gyro_Z,Accel_X,Accel_Y,Accel_Z,X_DEL_ANG,Y_DEL_ANG,Z_DEL_ANG,ROLL,PITCH,HEADING
1,0,-0.14000000,0.00300000,0.98900000,0.18000000,-0.30000000,-0.15000000,-0.04249450,0.00091060,0.30019327,0.17000000,8.05000000,-0.01000000
2,0,-0.13800000,0.00200000,0.99000000,-0.03000000,-0.01000000,-0.13000000,-0.04262703,0.00091252,0.30114402,0.25000000,7.86000000,0.00000000
3,0,-0.13600000,-0.00000000,0.98500000,-0.08000000,-0.01000000,-0.03000000,-0.04275092,0.00091252,0.30204135,0.20000000,7.91000000,-0.00000000
4,0,-0.13600000,0.00300000,0.99100000,-0.10000000,-0.32000000,-0.15000000,-0.04287368,0.00091523,0.30293588,0.19000000,7.90000000,-0.01000000
5,0,-0.13700000,0.00600000,0.98800000,0.19000000,0.12000000,-0.03000000,-0.04301489,0.00092141,0.30395419,0.19000000,7.92000000,-0.01000000
6,0,-0.14400000,0.00400000,0.98600000,0.01000000,-0.08000000,0.02000000,-0.04314923,0.00092514,0.30487406,0.19000000,7.93000000,-0.01000000
7,0,-0.14200000,0.00100000,0.98800000,0.12000000,-0.07000000,-0.12000000,-0.04328038,0.00092606,0.30578661,0.18000000,7.94000000,-0.01000000
8,0,-0.14000000,0.00400000,0.98700000,-0.03000000,0.01000000,-0.05000000,-0.04341403,0.00092988,0.30672883,0.18000000,7.94000000,-0.01000000
9,0,-0.14100000,0.00100000,0.99200000,0.22000000,0.05000000,-0.22000000,-0.04354813,0.00093083,0.30767228,0.17000000,7.95000000,-0.01000000
10,0,-0.14200000,0.00300000,0.98800000,0.18000000,0.19000000,-0.02000000,-0.04368392,0.00093370,0.30861710,0.17000000,7.95000000,-0.01000000
11,0,-0.13900000,-0.00200000,0.99200000,-0.14000000,0.27000000,-0.06000000,-0.04380721,0.00093193,0.30949692,0.16000000,7.99000000,-0.01000000
12,0,-0.14000000,0.00200000,0.98600000,0.04000000,-0.19000000,0.18000000,-0.04393278,0.00093372,0.31038129,0.16000000,7.98000000,-0.01000000
13,0,-0.14000000,0.00600000,0.98600000,0.18000000,-0.08000000,0.08000000,-0.04407711,0.00093991,0.31139778,0.14000000,7.99000000,-0.01000000
14,0,-0.13400000,0.00100000,0.98900000,-0.08000000,0.15000000,-0.09000000,-0.04421209,0.00094092,0.31239402,0.14000000,7.99000000,-0.01000000
15,0,-0.14100000,0.00200000,0.99100000,0.08000000,-0.34000000,0.21000000,-0.04434780,0.00094284,0.31334785,0.12000000,7.98000000,-0.01000000
16,0,-0.13800000,-0.00100000,0.98700000,-0.11000000,-0.23000000,0.07000000,-0.04448898,0.00094182,0.31435761,0.12000000,7.98000000,-0.01000000
17,0,-0.13700000,0.00300000,0.99300000,-0.10000000,0.08000000,-0.16000000,-0.04461643,0.00094461,0.31528140,0.13000000,7.99000000,-0.01000000
18,0,-0.14100000,0.00000000,0.98800000,0.07000000,0.13000000,-0.35000000,-0.04475090,0.00094461,0.31622363,0.12000000,7.99000000,-0.01000000
19,0,-0.13900000,-0.00000000,0.98900000,-0.13000000,-0.10000000,0.05000000,-0.04489771,0.00094461,0.31726821,0.12000000,8.00000000,-0.02000000
20,0,-0.14200000,0.00400000,0.98900000,0.08000000,-0.17000000,0.13000000,-0.04506814,0.00094941,0.31845521,0.11000000,7.99000000,-0.02000000
21,0,-0.14300000,0.00200000,0.98800000,0.01000000,-0.08000000,0.08000000,-0.04525405,0.00095201,0.31973970,0.12000000,7.99000000,-0.02000000
22,0,-0.13700000,-0.00100000,0.98800000,-0.05000000,0.14000000,-0.12000000,-0.04554838,0.00094986,0.32186231,0.11000000,7.99000000,-0.02000000
23,0,-0.14200000,0.00300000,0.99100000,0.37000000,-0.29000000,0.13000000,-0.04587624,0.00095679,0.32415038,0.11000000,8.00000000,-0.02000000
24,0,-0.14200000,0.00600000,0.98800000,0.22000000,-0.20000000,-0.02000000,-0.04628447,0.00097404,0.32699073,0.12000000,8.00000000,-0.02000000
25,0,-0.13500000,-0.00200000,0.98700000,0.21000000,0.20000000,-0.04000000,-0.04650758,0.00097073,0.32862196,0.12000000,8.00000000,-0.02000000
26,0,-0.14300000,0.00500000,0.98700000,-0.06000000,-0.16000000,-0.03000000,-0.04685176,0.00098277,0.33099751,0.12000000,8.00000000,-0.02000000
27,0,-0.14000000,0.00400000,0.98800000,0.12000000,0.04000000,-0.14000000,-0.04706619,0.00098889,0.33251073,0.12000000,7.99000000,-0.02000000
28,0,-0.13500000,0.00800000,0.99300000,0.19000000,0.05000000,-0.06000000,-0.04736639,0.00100668,0.33471890,0.13000000,7.99000000,-0.02000000
29,0,-0.14200000,0.00400000,0.99200000,0.07000000,0.17000000,-0.01000000,-0.04882153,0.00104767,0.34488438,0.13000000,8.00000000,-0.02000000
30,0,-0.13900000,0.00000000,0.98900000,-0.06000000,-0.00000000,-0.05000000,-0.04896947,0.00104767,0.34593698,0.13000000,8.01000000,-0.02000000
31,0,-0.14000000,-0.00100000,0.99100000,-0.05000000,-0.01000000,-0.12000000,-0.04912331,0.00104657,0.34702596,0.12000000,8.01000000,-0.02000000
32,0,-0.14000000,0.00000000,0.99100000,0.25000000,0.05000000,0.10000000,-0.04929107,0.00104657,0.34821347,0.12000000,8.01000000,-0.02000000
33,0,-0.13500000,-0.00000000,0.99000000,0.16000000,0.05000000,0.15000000,-0.04946485,0.00104657,0.34948782,0.12000000,8.02000000,-0.02000000
34,0,-0.14100000,0.00100000,0.98900000,0.08000000,-0.20000000,-0.13000000,-0.04964456,0.00104785,0.35074838,0.12000000,8.02000000,-0.02000000
35,0,-0.14000000,0.00100000,0.98700000,-0.15000000,0.34000000,-0.03000000,-0.05697243,0.00110019,0.40240987,0.11000000,8.02000000,-0.02000000
36,0,-0.14000000,0.00200000,0.99200000,-0.24000000,0.01000000,-0.02000000,-0.05714056,0.00110259,0.40360118,0.11000000,8.02000000,-0.02000000
37,0,-0.13600000,0.00300000,0.99000000,-0.19000000,-0.14000000,0.15000000,-0.05731883,0.00110652,0.40489890,0.11000000,8.02000000,-0.02000000
38,0,-0.13900000,-0.00100000,0.98900000,0.08000000,0.13000000,-0.02000000,-0.05750813,0.00110516,0.40624576,0.11000000,8.01000000,-0.02000000
39,0,-0.14000000,0.00600000,0.99200000,-0.02000000,-0.16000000,-0.05000000,-0.05767936,0.00111250,0.40745907,0.11000000,8.01000000,-0.02000000
40,0,-0.13500000,0.00300000,0.98700000,0.16000000,0.16000000,-0.11000000,-0.05787715,0.00111690,0.40890510,0.11000000,8.01000000,-0.02000000
41,0,-0.14200000,0.00400000,0.98600000,-0.08000000,-0.05000000,0.04000000,-0.06545714,0.00133042,0.46153803,0.11000000,8.01000000,-0.02000000
42,0,-0.13200000,0.00500000,0.98900000,0.01000000,0.08000000,-0.05000000,-0.06558709,0.00133534,0.46251163,0.11000000,8.01000000,-0.02000000
43,0,-0.13900000,0.00100000,0.98800000,0.06000000,0.19000000,-0.10000000,-0.06575813,0.00133657,0.46372735,0.11000000,8.01000000,-0.02000000
44,0,-0.13600000,0.00200000,0.99200000,-0.01000000,-0.03000000,0.26000000,-0.06590997,0.00133880,0.46483493,0.11000000,8.01000000,-0.02000000
45,0,-0.13800000,0.00100000,0.99000000,-0.08000000,0.20000000,0.06000000,-0.06606313,0.00133991,0.46593367,0.11000000,8.01000000,-0.02000000
46,0,-0.13400000,-0.00000000,0.98800000,0.06000000,0.14000000,0.15000000,-0.06621105,0.00133991,0.46702430,0.11000000,8.01000000,-0.02000000
47,0,-0.13800000,0.00300000,0.98800000,-0.17000000,-0.21000000,0.16000000,-0.07374641,0.00150372,0.52097310,0.11000000,8.01000000,-0.02000000
48,0,-0.13500000,0.00200000,0.99500000,-0.06000000,0.16000000,-0.17000000,-0.07390380,0.00150606,0.52213314,0.11000000,8.01000000,-0.02000000
49,0,-0.13800000,0.00200000,0.98700000,-0.19000000,-0.10000000,-0.21000000,-0.07405683,0.00150827,0.52322761,0.11000000,8.01000000,-0.02000000
50,0,-0.13500000,-0.00300000,0.99500000,0.23000000,0.16000000,-0.15000000,-0.07420469,0.00150499,0.52431743,0.12000000,8.01000000,-0.02000000
51,0,-0.14200000,-0.00100000,0.98800000,0.08000000,0.31000000,0.01000000,-0.07436137,0.00150388,0.52540759,0.11000000,8.01000000,-0.02000000
52,0,-0.14000000,0.00200000,0.99400000,-0.09000000,0.12000000,-0.10000000,-0.07451692,0.00150611,0.52651195,0.11000000,8.01000000,-0.02000000
53,0,-0.14200000,0.00000000,0.99000000,-0.02000000,0.08000000,0.22000000,-0.08236055,0.00150611,0.58119640,0.11000000,8.01000000,-0.02000000
54,0,-0.13300000,-0.00100000,0.99100000,0.05000000,0.02000000,0.01000000,-0.08248596,0.00150516,0.58213086,0.11000000,8.01000000,-0.02000000
55,0,-0.13800000,-0.00200000,0.99000000,0.00000000,0.04000000,-0.09000000,-0.08260947,0.00150337,0.58301693,0.11000000,8.01000000,-0.02000000
56,0,-0.13600000,0.00600000,0.99400000,-0.10000000,-0.06000000,0.10000000,-0.08273038,0.00150871,0.58390066,0.11000000,8.01000000,-0.02000000
57,0,-0.13700000,0.00200000,0.99100000,-0.09000000,-0.23000000,0.14000000,-0.08285601,0.00151054,0.58480937,0.11000000,8.00000000,-0.02000000
58,0,-0.14200000,-0.00100000,0.98900000,-0.06000000,0.05000000,-0.08000000,-0.08298703,0.00150962,0.58572190,0.11000000,8.01000000,-0.02000000
59,0,-0.14200000,0.00100000,0.98900000,0.12000000,-0.06000000,-0.24000000,-0.09084586,0.00156496,0.64045698,0.11000000,8.01000000,-0.02000000
60,0,-0.14300000,0.00500000,0.98700000,0.01000000,-0.31000000,-0.05000000,-0.09102747,0.00157131,0.64171053,0.11000000,8.01000000,-0.02000000
61,0,-0.14200000,0.00000000,0.99200000,-0.28000000,0.04000000,0.31000000,-0.09118808,0.00157131,0.64283254,0.11000000,8.01000000,-0.02000000
62,0,-0.14300000,0.00200000,0.99200000,-0.04000000,-0.30000000,0.24000000,-0.09132085,0.00157317,0.64375351,0.11000000,8.01000000,-0.02000000
63,0,-0.13900000,0.00500000,0.98900000,0.02000000,-0.03000000,0.01000000,-0.09144559,0.00157766,0.64464105,0.10000000,8.01000000,-0.02000000
64,0,-0.13800000,0.00200000,0.99000000,-0.03000000,0.20000000,-0.10000000,-0.09156959,0.00157945,0.64553066,0.11000000,8.01000000,-0.02000000
65,0,-0.14000000,0.00100000,0.99200000,-0.02000000,-0.12000000,0.04000000,-0.09926546,0.00163442,0.70006140,0.10000000,8.01000000,-0.02000000
66,0,-0.13400000,0.00600000,0.99100000,0.11000000,-0.00000000,-0.12000000,-0.09939373,0.00164017,0.70101004,0.11000000,8.00000000,-0.02000000
67,0,-0.14000000,0.00200000,0.99300000,0.14000000,0.14000000,0.16000000,-0.09952908,0.00164210,0.70197005,0.11000000,8.00000000,-0.02000000
68,0,-0.13900000,0.00000000,0.98600000,-0.21000000,-0.19000000,0.10000000,-0.09965565,0.00164210,0.70286783,0.11000000,8.01000000,-0.02000000
69,0,-0.13900000,0.00300000,0.99400000,0.08000000,0.08000000,0.13000000,-0.09978171,0.00164482,0.70376933,0.11000000,8.01000000,-0.02000000
70,0,-0.14400000,0.00700000,0.99000000,0.01000000,0.14000000,0.10000000,-0.09991125,0.00165112,0.70465989,0.11000000,8.01000000,-0.02000000
71,0,-0.14200000,0.00300000,0.99500000,-0.19000000,-0.27000000,-0.06000000,-0.10788949,0.00181967,0.76056373,0.11000000,8.01000000,-0.02000000
72,0,-0.13800000,0.00000000,0.99100000,-0.09000000,0.24000000,0.02000000,-0.10801830,0.00181967,0.76148874,0.11000000,8.01000000,-0.02000000
73,0,-0.14300000,0.00200000,0.99000000,-0.05000000,-0.01000000,-0.09000000,-0.10814540,0.00182145,0.76236868,0.11000000,8.01000000,-0.02000000
74,0,-0.13600000,0.00100000,0.99000000,0.13000000,-0.11000000,-0.20000000,-0.10826923,0.00182236,0.76327009,0.11000000,8.01000000,-0.02000000
75,0,-0.14100000,0.00200000,0.98900000,-0.13000000,0.16000000,-0.00000000,-0.10839543,0.00182415,0.76415527,0.11000000,8.01000000,-0.02000000
76,0,-0.13700000,0.00100000,0.99300000,0.02000000,-0.02000000,-0.11000000,-0.10851755,0.00182504,0.76504048,0.11000000,8.01000000,-0.02000000
77,0,-0.13900000,0.00700000,0.98900000,-0.10000000,-0.01000000,-0.09000000,-0.11622417,0.00221315,0.81987389,0.11000000,8.01000000,-0.02000000
78,0,-0.14100000,0.00400000,0.99000000,0.16000000,-0.16000000,-0.18000000,-0.11635844,0.00221696,0.82081661,0.11000000,8.01000000,-0.02000000
79,0,-0.13900000,0.00100000,0.98900000,-0.13000000,0.01000000,-0.11000000,-0.11648855,0.00221789,0.82174235,0.11000000,8.01000000,-0.02000000
80,0,-0.13900000,-0.00100000,0.98900000,0.08000000,0.21000000,-0.12000000,-0.11661557,0.00221698,0.82264615,0.11000000,8.01000000,-0.02000000
81,0,-0.14100000,0.00300000,0.99600000,0.01000000,0.11000000,-0.18000000,-0.11674150,0.00221966,0.82353569,0.11000000,8.01000000,-0.02000000
82,0,-0.14200000,0.00000000,0.99200000,-0.13000000,-0.07000000,-0.06000000,-0.11686805,0.00221966,0.82441977,0.11000000,8.01000000,-0.02000000
83,0,-0.13900000,-0.00000000,0.98900000,-0.15000000,-0.05000000,0.00000000,-0.12459963,0.00221966,0.87943074,0.11000000,8.01000000,-0.01000000
84,0,-0.13600000,0.00400000,0.99500000,-0.05000000,-0.01000000,0.22000000,-0.12473827,0.00222374,0.88044512,0.11000000,8.01000000,-0.01000000
85,0,-0.13700000,-0.00100000,0.99300000,-0.12000000,0.02000000,-0.06000000,-0.12486543,0.00222281,0.88136679,0.11000000,8.01000000,-0.01000000
86,0,-0.13900000,-0.00300000,0.98900000,-0.02000000,0.13000000,-0.19000000,-0.12499011,0.00222012,0.88225385,0.11000000,8.01000000,-0.01000000
87,0,-0.14000000,-0.00200000,0.98800000,0.11000000,0.14000000,-0.12000000,-0.12511511,0.00221833,0.88313601,0.11000000,8.01000000,-0.02000000
88,0,-0.13900000,0.00600000,0.99100000,0.18000000,0.14000000,-0.07000000,-0.12524001,0.00222372,0.88402653,0.11000000,8.01000000,-0.02000000
89,0,-0.13700000,-0.00000000,0.99300000,0.12000000,0.06000000,0.25000000,-0.13292276,0.00222372,0.93971241,0.11000000,8.01000000,-0.01000000
90,0,-0.14100000,0.00200000,0.98900000,0.08000000,0.07000000,0.05000000,-0.13305642,0.00222562,0.94064994,0.11000000,8.01000000,-0.01000000
91,0,-0.13600000,0.00400000,0.99200000,-0.17000000,-0.26000000,0.04000000,-0.13317980,0.00222925,0.94154986,0.11000000,8.01000000,-0.01000000
92,0,-0.14200000,0.00500000,0.98900000,-0.06000000,-0.07000000,-0.01000000,-0.13330703,0.00223373,0.94243598,0.11000000,8.01000000,-0.01000000
93,0,-0.14000000,-0.00000000,0.99000000,-0.03000000,-0.07000000,-0.01000000,-0.13343313,0.00223373,0.94332772,0.11000000,8.01000000,-0.01000000
94,0,-0.13800000,-0.00300000,0.98900000,-0.10000000,-0.02000000,0.15000000,-0.13355717,0.00223103,0.94421667,0.11000000,8.01000000,-0.01000000
95,0,-0.14400000,-0.00000000,0.99200000,-0.03000000,0.09000000,-0.05000000,-0.14153633,0.00223103,0.99918425,0.11000000,8.01000000,-0.01000000
96,0,-0.13800000,0.00100000,0.99100000,0.03000000,-0.08000000,-0.03000000,-0.14171200,0.00223230,1.00044571,0.11000000,8.01000000,-0.01000000
97,0,-0.14400000,0.00300000,0.98800000,-0.10000000,-0.02000000,-0.03000000,-0.14188311,0.00223587,1.00161972,0.11000000,8.01000000,-0.01000000
98,0,-0.13900000,0.00500000,0.98900000,-0.02000000,0.08000000,-0.03000000,-0.14209690,0.00224356,1.00314084,0.11000000,8.01000000,-0.01000000
99,0,-0.14300000,0.00800000,0.99000000,-0.15000000,0.24000000,-0.19000000,-0.14227449,0.00225349,1.00437035,0.11000000,8.01000000,-0.01000000
100,0,-0.13900000,0.00200000,0.98600000,0.15000000,-0.03000000,0.16000000,-0.14248086,0.00225646,1.00583420,0.11000000,8.01000000,-0.01000000
101,0,-0.13700000,0.00600000,0.98900000,0.01000000,-0.07000000,0.22000000,-0.14979121,0.00257662,1.05860746,0.12000000,8.01000000,-0.01000000
102,0,-0.13900000,0.00300000,0.99000000,0.08000000,0.14000000,-0.22000000,-0.14992254,0.00257946,1.05954286,0.12000000,8.01000000,-0.01000000
103,0,-0.14200000,0.00200000,0.98500000,-0.16000000,0.27000000,0.17000000,-0.15005339,0.00258130,1.06045053,0.12000000,8.01000000,-0.01000000
104,0,-0.13700000,0.00400000,0.98600000,-0.08000000,0.08000000,0.15000000,-0.15017950,0.00258498,1.06135817,0.12000000,8.01000000,-0.01000000
105,0,-0.14000000,0.00600000,0.98900000,0.18000000,-0.18000000,-0.08000000,-0.15030588,0.00259040,1.06225090,0.12000000,8.01000000,-0.01000000
106,0,-0.13900000,0.00300000,0.99100000,-0.06000000,-0.05000000,0.05000000,-0.15043009,0.00259308,1.06313645,0.12000000,8.01000000,-0.01000000
107,0,-0.14400000,0.00400000,0.99400000,-0.16000000,0.05000000,0.06000000,-0.15852859,0.00281804,1.11903861,0.12000000,8.01000000,-0.01000000
108,0,-0.13700000,-0.00100000,0.98900000,-0.06000000,0.01000000,-0.03000000,-0.15866199,0.00281707,1.12000161,0.12000000,8.01000000,-0.01000000
109,0,-0.14000000,0.00800000,0.98800000,-0.15000000,-0.19000000,0.03000000,-0.15878902,0.00282432,1.12089814,0.12000000,8.01000000,-0.01000000
110,0,-0.14300000,0.00100000,0.98900000,-0.03000000,-0.07000000,-0.08000000,-0.15891800,0.00282523,1.12179015,0.12000000,8.01000000,-0.01000000
111,0,-0.14100000,0.00300000,0.99200000,-0.10000000,0.00000000,0.06000000,-0.15904477,0.00282792,1.12268204,0.12000000,8.01000000,-0.01000000
112,0,-0.13900000,0.00300000,0.99200000,0.01000000,0.20000000,0.09000000,-0.15917104,0.00283065,1.12358315,0.12000000,8.02000000,-0.01000000
113,0,-0.14000000,0.00500000,0.98800000,0.10000000,-0.07000000,-0.14000000,-0.16692388,0.00310754,1.17829610,0.12000000,8.01000000,-0.01000000
114,0,-0.13900000,0.00800000,0.99300000,0.05000000,0.02000000,-0.06000000,-0.16705750,0.00311523,1.17925067,0.12000000,8.01000000,-0.01000000
115,0,-0.13600000,-0.00100000,0.99000000,-0.15000000,-0.22000000,-0.09000000,-0.16718014,0.00311432,1.18014336,0.12000000,8.01000000,-0.01000000
116,0,-0.13900000,0.00100000,0.99000000,0.19000000,-0.03000000,-0.11000000,-0.16730577,0.00311523,1.18103816,0.12000000,8.01000000,-0.01000000
117,0,-0.13600000,0.00400000,0.98900000,-0.18000000,0.02000000,0.18000000,-0.16742717,0.00311880,1.18192098,0.12000000,8.01000000,-0.01000000
118,0,-0.14300000,-0.00300000,0.99400000,-0.01000000,-0.07000000,0.11000000,-0.16755546,0.00311611,1.18281277,0.12000000,8.01000000,-0.01000000
119,0,-0.14100000,0.00400000,0.98800000,0.10000000,-0.01000000,0.13000000,-0.17581829,0.00335051,1.24071117,0.12000000,8.01000000,-0.01000000
120,0,-0.13500000,-0.00200000,0.98900000,-0.07000000,0.13000000,-0.09000000,-0.17598904,0.00334798,1.24196206,0.12000000,8.01000000,-0.01000000
121,0,-0.14200000,-0.00000000,0.99200000,-0.24000000,0.09000000,-0.14000000,-0.17612094,0.00334798,1.24288351,0.11000000,8.01000000,-0.01000000
122,0,-0.13700000,0.00200000,0.99100000,-0.12000000,0.04000000,-0.20000000,-0.17624405,0.00334978,1.24377402,0.12000000,8.01000000,-0.01000000
123,0,-0.13700000,-0.00000000,0.99200000,0.14000000,0.10000000,-0.11000000,-0.17636647,0.00334978,1.24466047,0.12000000,8.01000000,-0.01000000
124,0,-0.14300000,-0.00200000,0.99200000,0.25000000,-0.21000000,0.05000000,-0.17649436,0.00334799,1.24554762,0.12000000,8.01000000,-0.01000000
125,0,-0.14100000,0.00500000,0.98900000,0.16000000,-0.09000000,-0.20000000,-0.17662392,0.00335259,1.24645638,0.12000000,8.01000000,-0.01000000
126,0,-0.14000000,0.00200000,0.98800000,0.04000000,-0.28000000,-0.09000000,-0.18443949,0.00346424,1.30161195,0.12000000,8.01000000,-0.01000000
127,0,-0.13700000,0.00100000,0.99400000,-0.07000000,-0.02000000,0.06000000,-0.18456707,0.00346517,1.30253762,0.12000000,8.01000000,-0.01000000
128,0,-0.14100000,0.00500000,0.99200000,0.12000000,-0.01000000,0.07000000,-0.18469229,0.00346961,1.30341863,0.11000000,8.01000000,-0.01000000
129,0,-0.14200000,0.00200000,0.98800000,0.10000000,0.05000000,0.03000000,-0.18482348,0.00347146,1.30433141,0.12000000,8.02000000,-0.01000000
130,0,-0.14100000,0.00300000,0.99000000,0.16000000,-0.15000000,0.07000000,-0.18495284,0.00347421,1.30523967,0.12000000,8.01000000,-0.01000000
131,0,-0.14000000,0.00400000,0.99300000,0.16000000,-0.06000000,0.16000000,-0.18507884,0.00347781,1.30613340,0.12000000,8.02000000,-0.01000000
132,0,-0.13900000,0.00100000,0.98900000,0.16000000,0.05000000,0.16000000,-0.19278085,0.00353322,1.36093404,0.12000000,8.01000000,-0.01000000
133,0,-0.13900000,-0.00100000,0.99000000,0.26000000,-0.01000000,0.02000000,-0.19291139,0.00353228,1.36186378,0.12000000,8.01000000,-0.01000000
134,0,-0.14100000,-0.00200000,0.98900000,0.01000000,-0.30000000,0.04000000,-0.19303615,0.00353051,1.36273881,0.12000000,8.01000000,-0.02000000
135,0,-0.14500000,0.00200000,0.98900000,-0.02000000,-0.03000000,-0.05000000,-0.19316433,0.00353228,1.36361315,0.12000000,8.01000000,-0.02000000
136,0,-0.14100000,0.00400000,0.98800000,-0.06000000,0.12000000,-0.02000000,-0.19329151,0.00353589,1.36450426,0.11000000,8.01000000,-0.02000000
137,0,-0.14600000,0.00200000,0.99000000,-0.22000000,0.08000000,-0.00000000,-0.19342302,0.00353769,1.36539600,0.11000000,8.02000000,-0.02000000
138,0,-0.14400000,0.00400000,0.99400000,0.04000000,-0.20000000,-0.15000000,-0.20142560,0.00375998,1.42063602,0.11000000,8.02000000,-0.02000000
139,0,-0.13700000,-0.00400000,0.98900000,0.09000000,0.02000000,0.04000000,-0.20156330,0.00375596,1.42163014,0.11000000,8.02000000,-0.02000000
140,0,-0.14200000,0.00200000,0.98800000,-0.12000000,0.09000000,0.07000000,-0.20169314,0.00375779,1.42253350,0.11000000,8.02000000,-0.02000000
141,0,-0.14000000,0.00400000,0.99100000,-0.09000000,-0.05000000,-0.02000000,-0.20181788,0.00376135,1.42341645,0.11000000,8.02000000,-0.02000000
142,0,-0.13500000,0.00300000,0.98600000,-0.12000000,-0.01000000,0.18000000,-0.20193935,0.00376405,1.42430365,0.11000000,8.02000000,-0.02000000
143,0,-0.13500000,0.00300000,0.99200000,0.02000000,-0.10000000,-0.16000000,-0.20206114,0.00376676,1.42519860,0.11000000,8.02000000,-0.02000000
144,0,-0.13900000,0.00300000,0.98900000,-0.01000000,0.05000000,0.28000000,-0.20987669,0.00393544,1.48080708,0.11000000,8.02000000,-0.02000000
145,0,-0.14100000,0.00500000,0.98900000,-0.12000000,0.00000000,0.11000000,-0.21001089,0.00394020,1.48174837,0.11000000,8.02000000,-0.02000000
146,0,-0.14100000,0.00100000,0.98900000,-0.11000000,0.02000000,0.08000000,-0.21013789,0.00394110,1.48263921,0.11000000,8.02000000,-0.02000000
147,0,-0.14000000,0.00200000,0.99200000,-0.00000000,0.14000000,0.09000000,-0.21026500,0.00394292,1.48353985,0.11000000,8.02000000,-0.02000000
148,0,-0.13500000,0.00400000,0.98700000,-0.05000000,-0.16000000,0.03000000,-0.21038654,0.00394652,1.48442841,0.11000000,8.02000000,-0.02000000
149,0,-0.14000000,0.00600000,0.99000000,-0.08000000,-0.15000000,-0.26000000,-0.21051311,0.00395194,1.48532345,0.11000000,8.02000000,-0.02000000
150,0,-0.13600000,0.00200000,0.98600000,0.07000000,-0.07000000,-0.21000000,-0.21805320,0.00406283,1.53998912,0.11000000,8.02000000,-0.02000000
151,0,-0.13900000,0.00400000,0.98600000,-0.13000000,0.02000000,-0.09000000,-0.21818553,0.00406663,1.54092780,0.11000000,8.02000000,-0.02000000
152,0,-0.13300000,0.00200000,0.98700000,0.11000000,0.16000000,-0.14000000,-0.21830558,0.00406844,1.54181872,0.11000000,8.02000000,-0.02000000
153,0,-0.13900000,0.00200000,0.99000000,-0.05000000,-0.11000000,-0.10000000,-0.21843118,0.00407025,1.54271329,0.11000000,8.02000000,-0.02000000
154,0,-0.14600000,0.00100000,0.98800000,0.08000000,-0.19000000,-0.03000000,-0.21856241,0.00407115,1.54360134,0.11000000,8.02000000,-0.02000000
155,0,-0.13800000,0.00300000,0.99200000,-0.10000000,0.00000000,-0.00000000,-0.21868665,0.00407385,1.54449441,0.11000000,8.02000000,-0.02000000
156,0,-0.13800000,-0.00400000,0.98800000,-0.15000000,-0.02000000,-0.23000000,-0.22635983,0.00385144,1.59942996,0.11000000,8.02000000,-0.02000000
157,0,-0.14400000,0.00200000,0.98900000,0.12000000,0.34000000,-0.09000000,-0.22649675,0.00385334,1.60037032,0.11000000,8.02000000,-0.02000000
158,0,-0.13400000,0.00200000,0.99100000,-0.00000000,-0.04000000,-0.02000000,-0.22661732,0.00385514,1.60126201,0.11000000,8.02000000,-0.02000000
159,0,-0.14100000,0.00400000,0.99000000,0.10000000,-0.04000000,-0.22000000,-0.22674662,0.00385880,1.60216980,0.11000000,8.02000000,-0.02000000
160,0,-0.13700000,0.00200000,0.99100000,0.30000000,0.09000000,0.02000000,-0.22686963,0.00386060,1.60305960,0.10000000,8.02000000,-0.02000000
161,0,-0.14100000,0.00000000,0.99000000,-0.26000000,-0.07000000,-0.03000000,-0.22699663,0.00386060,1.60395134,0.10000000,8.02000000,-0.02000000
162,0,-0.13900000,0.00800000,0.99200000,0.22000000,0.12000000,-0.09000000,-0.23479962,0.00430969,1.65963886,0.10000000,8.02000000,-0.02000000
163,0,-0.13500000,-0.00000000,0.98900000,-0.10000000,0.14000000,0.05000000,-0.23492814,0.00430969,1.66058039,0.10000000,8.02000000,-0.02000000
164,0,-0.13800000,0.00000000,0.99200000,0.11000000,0.07000000,-0.19000000,-0.23505389,0.00430969,1.66148434,0.10000000,8.02000000,-0.02000000
165,0,-0.13700000,0.00400000,0.99000000,-0.06000000,-0.14000000,-0.13000000,-0.23517651,0.00431327,1.66237041,0.10000000,8.02000000,-0.02000000
166,0,-0.14000000,0.00400000,0.99000000,-0.12000000,-0.26000000,0.09000000,-0.23530161,0.00431685,1.66325507,0.11000000,8.02000000,-0.02000000
167,0,-0.14200000,-0.00200000,0.98900000,-0.06000000,0.03000000,0.30000000,-0.23542938,0.00431505,1.66414496,0.10000000,8.02000000,-0.02000000
168,0,-0.13600000,0.00200000,0.99000000,0.13000000,-0.10000000,0.16000000,-0.24296630,0.00442588,1.71900927,0.10000000,8.02000000,-0.02000000
169,0,-0.13900000,0.00200000,0.99400000,-0.07000000,-0.05000000,-0.08000000,-0.24309909,0.00442780,1.71995888,0.10000000,8.02000000,-0.02000000
170,0,-0.14200000,0.00300000,0.99700000,-0.17000000,0.09000000,0.19000000,-0.24322926,0.00443055,1.72087285,0.10000000,8.02000000,-0.02000000
171,0,-0.14200000,0.00000000,0.99000000,0.06000000,-0.11000000,0.05000000,-0.24335673,0.00443055,1.72176152,0.10000000,8.02000000,-0.02000000
172,0,-0.14100000,0.00300000,0.99200000,0.12000000,-0.12000000,0.07000000,-0.24348296,0.00443323,1.72264962,0.11000000,8.02000000,-0.02000000
173,0,-0.14400000,-0.00300000,0.98600000,-0.02000000,0.22000000,-0.04000000,-0.24361370,0.00443051,1.72354480,0.11000000,8.03000000,-0.02000000
174,0,-0.14000000,0.00100000,0.99100000,-0.05000000,-0.24000000,0.13000000,-0.25140186,0.00448614,1.77867387,0.11000000,8.03000000,-0.01000000
175,0,-0.14200000,0.00300000,0.98900000,0.06000000,-0.16000000,-0.03000000,-0.25153742,0.00448900,1.77961799,0.11000000,8.03000000,-0.01000000
176,0,-0.14100000,0.00300000,0.98900000,-0.14000000,-0.10000000,-0.03000000,-0.25166543,0.00449173,1.78051590,0.11000000,8.03000000,-0.01000000
177,0,-0.14000000,0.00500000,0.99000000,0.09000000,-0.05000000,0.19000000,-0.25179100,0.00449621,1.78140387,0.11000000,8.03000000,-0.01000000
178,0,-0.13500000,0.00000000,0.98900000,0.30000000,0.13000000,0.16000000,-0.25191238,0.00449621,1.78229305,0.11000000,8.03000000,-0.01000000
179,0,-0.14100000,0.00200000,0.98900000,-0.08000000,-0.01000000,0.12000000,-0.25203972,0.00449802,1.78318625,0.11000000,8.03000000,-0.01000000
180,0,-0.14600000,-0.00100000,0.99000000,0.07000000,0.04000000,0.11000000,-0.26023925,0.00444185,1.83878580,0.11000000,8.03000000,-0.01000000
181,0,-0.13500000,0.00400000,0.99400000,-0.03000000,-0.13000000,0.06000000,-0.26036896,0.00444570,1.83974086,0.11000000,8.03000000,-0.01000000
182,0,-0.14300000,0.00400000,0.99100000,-0.13000000,-0.09000000,-0.00000000,-0.26049801,0.00444931,1.84063516,0.11000000,8.03000000,-0.01000000
183,0,-0.14100000,0.00400000,0.98700000,-0.16000000,-0.20000000,-0.26000000,-0.26062424,0.00445289,1.84151878,0.11000000,8.03000000,-0.01000000
184,0,-0.13800000,0.00300000,0.98700000,0.23000000,0.03000000,-0.06000000,-0.26074699,0.00445556,1.84239675,0.12000000,8.03000000,-0.01000000
185,0,-0.13300000,0.00100000,0.98900000,0.05000000,-0.01000000,-0.09000000,-0.26086625,0.00445645,1.84328358,0.12000000,8.03000000,-0.01000000
186,0,-0.13300000,0.00600000,0.99100000,-0.17000000,-0.07000000,0.43000000,-0.26823444,0.00478885,1.89818488,0.12000000,8.03000000,-0.01000000
187,0,-0.14000000,0.00200000,0.98700000,-0.21000000,-0.10000000,0.07000000,-0.26836986,0.00479079,1.89913957,0.12000000,8.03000000,-0.01000000
188,0,-0.14100000,0.00100000,0.99100000,0.20000000,0.00000000,-0.07000000,-0.26849821,0.00479170,1.90004166,0.11000000,8.03000000,-0.01000000
189,0,-0.14100000,0.00100000,0.99200000,-0.04000000,-0.11000000,-0.19000000,-0.26862551,0.00479260,1.90093733,0.11000000,8.03000000,-0.01000000
190,0,-0.14500000,-0.00100000,0.98500000,0.02000000,0.03000000,0.12000000,-0.26875623,0.00479170,1.90182526,0.11000000,8.03000000,-0.01000000
191,0,-0.14200000,0.00600000,0.99100000,0.02000000,-0.09000000,0.13000000,-0.26888427,0.00479711,1.90271885,0.12000000,8.03000000,-0.01000000
192,0,-0.13900000,0.00400000,0.99200000,-0.08000000,0.03000000,-0.29000000,-0.27672394,0.00502271,1.95866818,0.12000000,8.03000000,-0.01000000
193,0,-0.14200000,0.00400000,0.99300000,0.01000000,-0.10000000,-0.14000000,-0.27685845,0.00502650,1.95960879,0.12000000,8.03000000,-0.01000000
194,0,-0.14000000,0.00300000,0.99200000,0.15000000,-0.04000000,-0.04000000,-0.27698439,0.00502920,1.96050115,0.12000000,8.03000000,-0.01000000
195,0,-0.14100000,0.00200000,0.98700000,0.18000000,0.15000000,-0.13000000,-0.27711048,0.00503099,1.96138383,0.12000000,8.03000000,-0.01000000
196,0,-0.13800000,0.00600000,0.98900000,-0.12000000,0.02000000,-0.12000000,-0.27723344,0.00503633,1.96226500,0.12000000,8.03000000,-0.01000000
197,0,-0.13900000,0.00100000,0.99000000,-0.12000000,-0.02000000,0.22000000,-0.27735907,0.00503724,1.96315980,0.12000000,8.03000000,-0.01000000
198,0,-0.13800000,0.00200000,0.99200000,-0.22000000,-0.26000000,-0.08000000,-0.28500630,0.00514807,2.01813116,0.12000000,8.03000000,-0.01000000
199,0,-0.13600000,0.00500000,0.98800000,0.02000000,-0.03000000,0.04000000,-0.28513704,0.00515287,2.01908093,0.12000000,8.03000000,-0.01000000
200,0,-0.13600000,0.00100000,0.99000000,-0.11000000,-0.03000000,-0.23000000,-0.28525947,0.00515377,2.01997220,0.12000000,8.02000000,-0.01000000
201,0,-0.13500000,0.00500000,0.98800000,0.00000000,0.04000000,0.18000000,-0.28538101,0.00515828,2.02086166,0.12000000,8.02000000,-0.01000000
202,0,-0.14200000,-0.00100000,0.99100000,-0.10000000,0.07000000,0.20000000,-0.28550837,0.00515738,2.02175052,0.12000000,8.03000000,-0.01000000
203,0,-0.14000000,0.00500000,0.99200000,-0.17000000,-0.02000000,0.01000000,-0.28563481,0.00516189,2.02264642,0.11000000,8.03000000,-0.01000000
204,0,-0.14200000,-0.00100000,0.99300000,-0.03000000,0.02000000,0.06000000,-0.29350075,0.00510650,2.07765260,0.11000000,8.02000000,-0.01000000
205,0,-0.14200000,0.00400000,0.98600000,-0.31000000,-0.20000000,0.18000000,-0.29363695,0.00511034,2.07859833,0.11000000,8.03000000,-0.01000000
206,0,-0.13600000,0.00400000,0.99400000,0.09000000,-0.11000000,0.20000000,-0.29375945,0.00511394,2.07949367,0.11000000,8.03000000,-0.01000000
207,0,-0.13900000,0.00200000,0.98900000,-0.05000000,0.12000000,-0.27000000,-0.29388389,0.00511573,2.08037909,0.11000000,8.03000000,-0.01000000
208,0,-0.13600000,0.00400000,0.99400000,-0.18000000,-0.23000000,-0.04000000,-0.29400545,0.00511931,2.08126755,0.11000000,8.03000000,-0.01000000
209,0,-0.13700000,0.00200000,0.99200000,-0.02000000,0.06000000,0.07000000,-0.29412938,0.00512111,2.08216488,0.11000000,8.03000000,-0.01000000
210,0,-0.14000000,0.00200000,0.98700000,-0.22000000,0.10000000,-0.01000000,-0.30202666,0.00523393,2.13784068,0.11000000,8.03000000,-0.00000000
211,0,-0.13500000,0.00100000,0.99000000,-0.04000000,-0.11000000,0.10000000,-0.30215530,0.00523489,2.13878411,0.11000000,8.02000000,-0.00000000
212,0,-0.14000000,0.00100000,0.98600000,-0.04000000,-0.31000000,-0.04000000,-0.30228124,0.00523579,2.13967107,0.11000000,8.02000000,-0.00000000
213,0,-0.13800000,0.00600000,0.98800000,-0.12000000,0.18000000,0.19000000,-0.30240587,0.00524120,2.14056336,0.11000000,8.02000000,-0.00000000
214,0,-0.14300000,0.00100000,0.99100000,-0.12000000,0.10000000,0.20000000,-0.30253489,0.00524211,2.14145742,0.11000000,8.02000000,-0.00000000
215,0,-0.13500000,0.00100000,0.99000000,0.08000000,0.03000000,0.28000000,-0.30265613,0.00524300,2.14234656,0.11000000,8.02000000,-0.00000000
216,0,-0.14100000,0.00100000,0.98800000,0.01000000,0.16000000,0.05000000,-0.31047538,0.00529846,2.19713678,0.11000000,8.03000000,-0.00000000
217,0,-0.14300000,0.00000000,0.98900000,0.03000000,0.05000000,-0.06000000,-0.31061115,0.00529846,2.19807571,0.11000000,8.03000000,-0.00000000
218,0,-0.14400000,0.00300000,0.99000000,-0.05000000,0.14000000,-0.00000000,-0.31074089,0.00530116,2.19896769,0.11000000,8.03000000,-0.00000000
219,0,-0.14100000,0.00000000,0.99100000,0.12000000,-0.06000000,0.05000000,-0.31086678,0.00530116,2.19985253,0.11000000,8.03000000,-0.00000000
220,0,-0.14300000,0.00300000,0.98700000,-0.08000000,0.06000000,0.13000000,-0.31099757,0.00530391,2.20075521,0.11000000,8.03000000,-0.00000000
221,0,-0.14100000,-0.00200000,0.98900000,-0.14000000,-0.07000000,0.00000000,-0.31112434,0.00530211,2.20164440,0.11000000,8.03000000,-0.00000000
222,0,-0.13900000,0.00300000,0.99000000,-0.05000000,-0.00000000,-0.04000000,-0.31883059,0.00546843,2.25653066,0.11000000,8.03000000,0.00000000
223,0,-0.13600000,0.00600000,0.98700000,-0.04000000,-0.08000000,-0.01000000,-0.31899741,0.00547579,2.25774138,0.11000000,8.03000000,-0.00000000
224,0,-0.13700000,0.00000000,0.99100000,0.24000000,-0.08000000,0.12000000,-0.31914799,0.00547579,2.25883059,0.11000000,8.03000000,-0.00000000
225,0,-0.13800000,0.00400000,0.98800000,-0.11000000,-0.08000000,0.15000000,-0.31930102,0.00548023,2.25992617,0.11000000,8.03000000,0.00000000
226,0,-0.13900000,0.00100000,0.98700000,0.05000000,0.16000000,-0.02000000,-0.31945260,0.00548132,2.26100252,0.11000000,8.03000000,0.00000000
227,0,-0.13600000,0.00200000,0.99200000,-0.15000000,-0.04000000,-0.10000000,-0.31960134,0.00548350,2.26208740,0.11000000,8.03000000,0.00000000
228,0,-0.13900000,0.00300000,0.99100000,-0.24000000,0.10000000,-0.05000000,-0.32728399,0.00564932,2.31686087,0.11000000,8.03000000,0.00000000
229,0,-0.14200000,0.00300000,0.99100000,-0.05000000,-0.06000000,-0.10000000,-0.32742568,0.00565231,2.31784967,0.11000000,8.03000000,0.00000000
230,0,-0.13400000,0.00100000,0.99600000,0.03000000,0.07000000,0.05000000,-0.32755344,0.00565326,2.31879929,0.11000000,8.03000000,0.00000000
231,0,-0.13700000,0.00300000,0.99100000,-0.03000000,-0.06000000,0.03000000,-0.32768252,0.00565609,2.31973304,0.11000000,8.02000000,0.00000000
232,0,-0.14500000,-0.00100000,0.98900000,0.11000000,-0.13000000,0.09000000,-0.32782215,0.00565513,2.32068542,0.11000000,8.02000000,0.00000000
233,0,-0.13900000,-0.00100000,0.99100000,-0.01000000,0.07000000,0.05000000,-0.32795150,0.00565420,2.32160760,0.11000000,8.02000000,0.00000000
234,0,-0.13900000,0.00200000,0.98700000,-0.16000000,-0.02000000,-0.32000000,-0.33561868,0.00576452,2.37605009,0.11000000,8.02000000,-0.00000000
235,0,-0.13800000,-0.00300000,0.99300000,-0.05000000,0.06000000,0.09000000,-0.33574993,0.00576166,2.37699449,0.11000000,8.02000000,-0.00000000
236,0,-0.14300000,0.00100000,0.98500000,0.03000000,0.07000000,0.00000000,-0.33587863,0.00576256,2.37788102,0.11000000,8.02000000,-0.00000000
237,0,-0.13900000,0.00200000,0.99200000,0.07000000,-0.11000000,0.01000000,-0.33600516,0.00576438,2.37878402,0.11000000,8.03000000,-0.00000000
238,0,-0.14200000,0.00100000,0.98800000,0.16000000,0.02000000,-0.05000000,-0.33613185,0.00576528,2.37966547,0.11000000,8.03000000,-0.00000000
239,0,-0.14200000,-0.00100000,0.99000000,-0.16000000,0.05000000,-0.35000000,-0.33626056,0.00576437,2.38056287,0.10000000,8.03000000,-0.00000000
240,0,-0.14100000,0.00100000,0.99200000,0.03000000,-0.05000000,0.09000000,-0.34407323,0.00581978,2.43552856,0.11000000,8.03000000,-0.00000000
241,0,-0.14000000,0.00000000,0.99100000,0.13000000,0.31000000,-0.01000000,-0.34421428,0.00581978,2.43652705,0.10000000,8.03000000,-0.00000000
242,0,-0.13900000,0.00100000,0.98800000,-0.04000000,0.28000000,0.07000000,-0.34434827,0.00582074,2.43747941,0.10000000,8.03000000,-0.00000000
243,0,-0.14100000,-0.00000000,0.98800000,-0.01000000,0.15000000,0.00000000,-0.34448166,0.00582074,2.43841410,0.10000000,8.03000000,-0.00000000
244,0,-0.14000000,0.00400000,0.99100000,-0.17000000,0.12000000,0.21000000,-0.34460934,0.00582439,2.43931784,0.10000000,8.03000000,-0.00000000
245,0,-0.13900000,0.00200000,0.99200000,0.29000000,0.17000000,-0.07000000,-0.34473997,0.00582627,2.44025017,0.10000000,8.03000000,-0.00000000
246,0,-0.13900000,-0.00200000,0.98700000,0.21000000,0.02000000,-0.08000000,-0.35286081,0.00570942,2.49791395,0.10000000,8.03000000,-0.00000000
247,0,-0.13900000,-0.00000000,0.98700000,0.07000000,0.01000000,-0.02000000,-0.35299609,0.00570942,2.49887452,0.10000000,8.03000000,-0.00000000
248,0,-0.14100000,0.00300000,0.99100000,0.12000000,-0.14000000,0.07000000,-0.35312491,0.00571216,2.49977992,0.10000000,8.03000000,-0.00000000
249,0,-0.13700000,0.00900000,0.99100000,-0.03000000,0.26000000,0.05000000,-0.35324779,0.00572024,2.50066878,0.10000000,8.03000000,-0.00000000
250,0,-0.13500000,0.00500000,0.99700000,0.05000000,0.10000000,0.02000000,-0.35336978,0.00572475,2.50156967,0.11000000,8.03000000,-0.00000000
251,0,-0.14100000,0.00400000,0.98900000,-0.09000000,0.29000000,-0.19000000,-0.35349624,0.00572834,2.50245674,0.11000000,8.03000000,-0.00000000
252,0,-0.13900000,0.00500000,0.99200000,0.14000000,0.14000000,-0.06000000,-0.35362049,0.00573281,2.50334342,0.11000000,8.03000000,-0.00000000
253,0,-0.13700000,0.00800000,0.99200000,-0.23000000,0.11000000,-0.09000000,-0.36130803,0.00618172,2.55900799,0.11000000,8.03000000,-0.00000000
254,0,-0.13700000,-0.00100000,0.99000000,-0.05000000,0.26000000,-0.08000000,-0.36143617,0.00618078,2.55993395,0.11000000,8.03000000,-0.00000000
255,0,-0.13700000,0.00400000,0.99200000,-0.19000000,0.06000000,-0.03000000,-0.36156121,0.00618443,2.56083932,0.10000000,8.03000000,-0.00000000
256,0,-0.13600000,0.00000000,0.98800000,-0.06000000,0.05000000,-0.14000000,-0.36168355,0.00618443,2.56172808,0.10000000,8.03000000,-0.00000000
257,0,-0.13800000,0.00000000,0.99000000,-0.04000000,-0.13000000,-0.36000000,-0.36180709,0.00618443,2.56261439,0.10000000,8.03000000,-0.00000000
258,0,-0.14000000,0.00500000,0.99100000,0.14000000,0.02000000,-0.10000000,-0.36193330,0.00618894,2.56350773,0.10000000,8.04000000,-0.00000000
259,0,-0.13800000,0.01000000,0.99300000,-0.18000000,-0.01000000,-0.05000000,-0.36958496,0.00674341,2.61856647,0.10000000,8.03000000,-0.00000000
260,0,-0.13900000,-0.00000000,0.98700000,0.30000000,0.03000000,0.07000000,-0.36971762,0.00674341,2.61950845,0.10000000,8.03000000,-0.00000000
261,0,-0.14400000,0.00100000,0.98900000,-0.05000000,0.05000000,0.09000000,-0.36984942,0.00674433,2.62041367,0.10000000,8.03000000,-0.00000000
262,0,-0.14500000,-0.00200000,0.98800000,0.20000000,-0.06000000,-0.16000000,-0.36997993,0.00674253,2.62130290,0.10000000,8.03000000,-0.00000000
263,0,-0.14100000,0.00200000,0.99000000,-0.08000000,-0.21000000,-0.01000000,-0.37010895,0.00674436,2.62220880,0.10000000,8.03000000,-0.00000000
264,0,-0.13900000,-0.00000000,0.99000000,-0.19000000,-0.07000000,-0.19000000,-0.37023661,0.00674436,2.62311801,0.10000000,8.03000000,-0.00000000
265,0,-0.14200000,-0.00400000,0.99100000,0.08000000,0.24000000,-0.11000000,-0.37813034,0.00652200,2.67820737,0.10000000,8.03000000,-0.00000000
266,0,-0.13400000,0.00400000,0.99000000,0.11000000,0.11000000,0.27000000,-0.37825746,0.00652579,2.67914656,0.10000000,8.03000000,-0.00000000
267,0,-0.13700000,-0.00300000,0.98900000,0.02000000,-0.09000000,-0.05000000,-0.37838233,0.00652306,2.68004800,0.10000000,8.03000000,-0.00000000
268,0,-0.14600000,0.00000000,0.99300000,-0.09000000,0.01000000,0.02000000,-0.37853146,0.00652306,2.68106224,0.10000000,8.03000000,-0.00000000
269,0,-0.13400000,0.00300000,0.98800000,-0.19000000,0.17000000,-0.05000000,-0.37865238,0.00652576,2.68195382,0.10000000,8.03000000,-0.00000000
270,0,-0.13600000,-0.00100000,0.99100000,-0.21000000,0.14000000,-0.10000000,-0.37877563,0.00652486,2.68285190,0.10000000,8.03000000,-0.00000000
271,0,-0.14400000,0.00200000,0.98800000,0.05000000,-0.15000000,0.00000000,-0.38688817,0.00663753,2.73851297,0.10000000,8.03000000,-0.00000000
272,0,-0.14200000,0.00200000,0.99200000,-0.00000000,-0.07000000,0.09000000,-0.38705637,0.00663990,2.73968796,0.10000000,8.03000000,-0.00000000
273,0,-0.13900000,0.00200000,0.98900000,0.14000000,-0.15000000,-0.10000000,-0.38718952,0.00664182,2.74063539,0.10000000,8.03000000,-0.00000000
274,0,-0.14600000,0.00700000,0.99200000,0.17000000,0.05000000,0.02000000,-0.38732263,0.00664820,2.74153980,0.11000000,8.03000000,-0.00000000
275,0,-0.13400000,0.00200000,0.98900000,0.12000000,-0.25000000,-0.26000000,-0.38744426,0.00665001,2.74243748,0.11000000,8.03000000,-0.00000000
276,0,-0.13800000,-0.00200000,0.98800000,0.18000000,0.28000000,0.19000000,-0.38757037,0.00664819,2.74334037,0.11000000,8.03000000,-0.00000000
277,0,-0.14100000,0.00100000,0.99000000,-0.20000000,-0.04000000,-0.01000000,-0.39529550,0.00670298,2.79758060,0.11000000,8.03000000,0.00000000
278,0,-0.14300000,-0.00300000,0.99400000,-0.05000000,0.05000000,0.21000000,-0.39543388,0.00670007,2.79854254,0.11000000,8.03000000,0.00000000
279,0,-0.14200000,0.00100000,0.99500000,-0.08000000,0.01000000,-0.06000000,-0.39556240,0.00670098,2.79944305,0.11000000,8.03000000,0.00000000
280,0,-0.14000000,0.00200000,0.98800000,0.03000000,0.03000000,0.35000000,-0.39568854,0.00670278,2.80033322,0.11000000,8.03000000,0.00000000
281,0,-0.14100000,-0.00100000,0.98900000,0.01000000,-0.01000000,-0.09000000,-0.39581551,0.00670188,2.80122382,0.11000000,8.03000000,0.00000000
282,0,-0.14500000,0.00300000,0.99000000,0.07000000,0.11000000,0.06000000,-0.39594660,0.00670459,2.80211887,0.11000000,8.03000000,0.01000000
283,0,-0.13400000,0.00400000,0.99000000,-0.19000000,-0.21000000,-0.09000000,-0.40409889,0.00694794,2.86234847,0.11000000,8.03000000,0.00000000
284,0,-0.14500000,0.00200000,0.99000000,0.05000000,-0.13000000,-0.22000000,-0.40424543,0.00694996,2.86334902,0.11000000,8.03000000,0.00000000
285,0,-0.13900000,0.00100000,0.98900000,-0.11000000,-0.21000000,0.02000000,-0.40437694,0.00695091,2.86428466,0.10000000,8.03000000,0.00000000
286,0,-0.14200000,0.00300000,0.99100000,0.10000000,0.05000000,0.02000000,-0.40451009,0.00695372,2.86521392,0.11000000,8.03000000,0.00000000
287,0,-0.13700000,-0.00200000,0.98900000,0.24000000,0.01000000,-0.27000000,-0.40464342,0.00695178,2.86617644,0.11000000,8.03000000,0.00000000
288,0,-0.13700000,0.00200000,0.98700000,-0.11000000,-0.04000000,-0.00000000,-0.40525233,0.00696067,2.87056326,0.11000000,8.03000000,0.00000000
289,0,-0.14100000,0.00700000,0.98600000,-0.16000000,0.15000000,-0.22000000,-0.41192965,0.00729216,2.91725711,0.10000000,8.03000000,0.00000000
290,0,-0.13900000,0.00300000,0.98900000,0.06000000,-0.07000000,0.04000000,-0.41207062,0.00729521,2.91826018,0.10000000,8.02000000,0.00000000
291,0,-0.14100000,0.00000000,0.99200000,-0.04000000,0.08000000,-0.34000000,-0.41245843,0.00729521,2.92098858,0.10000000,8.02000000,0.00000000
292,0,-0.13700000,-0.00000000,0.98900000,0.04000000,-0.31000000,0.12000000,-0.41258686,0.00729521,2.92191573,0.11000000,8.02000000,0.00000000
293,0,-0.13700000,0.00000000,0.99000000,0.12000000,-0.10000000,-0.17000000,-0.41277716,0.00729521,2.92329086,0.11000000,8.02000000,0.00000000
294,0,-0.13900000,0.00500000,0.99100000,-0.02000000,0.30000000,0.17000000,-0.41291469,0.00730015,2.92427139,0.11000000,8.02000000,0.00000000
295,0,-0.14200000,0.00400000,0.99100000,-0.04000000,0.14000000,-0.14000000,-0.42039691,0.00751092,2.97648887,0.11000000,8.02000000,0.00000000
296,0,-0.14000000,-0.00200000,0.98800000,-0.05000000,0.12000000,-0.16000000,-0.42053026,0.00750902,2.97742992,0.11000000,8.02000000,0.00000000
297,0,-0.14200000,0.00700000,0.99200000,-0.01000000,-0.03000000,-0.09000000,-0.42065911,0.00751537,2.97833008,0.11000000,8.02000000,0.00000000
298,0,-0.14200000,-0.00200000,0.99200000,-0.21000000,0.23000000,-0.01000000,-0.42078671,0.00751357,2.97922149,0.11000000,8.02000000,-0.00000000
299,0,-0.13900000,0.00100000,0.98900000,0.05000000,0.02000000,0.16000000,-0.42091062,0.00751446,2.98010313,0.11000000,8.03000000,-0.00000000
300,0,-0.13700000,0.00600000,0.99000000,-0.07000000,-0.07000000,-0.07000000,-0.42103615,0.00751996,2.98101021,0.11000000,8.03000000,0.00000000
301,0,-0.13400000,0.00300000,0.99400000,0.05000000,0.07000000,-0.09000000,-0.42859865,0.00768927,3.03710813,0.11000000,8.02000000,0.00000000
302,0,-0.14000000,0.00100000,0.98400000,0.10000000,0.02000000,-0.10000000,-0.42873209,0.00769022,3.03804608,0.11000000,8.02000000,0.00000000
303,0,-0.14600000,0.00300000,0.99100000,-0.02000000,-0.02000000,-0.32000000,-0.42886406,0.00769293,3.03894179,0.11000000,8.02000000,-0.00000000
304,0,-0.14200000,0.00200000,0.98900000,0.21000000,0.02000000,0.01000000,-0.42899142,0.00769473,3.03982885,0.11000000,8.03000000,0.00000000
305,0,-0.14100000,0.00200000,0.98800000,0.26000000,-0.10000000,-0.04000000,-0.42911960,0.00769655,3.04072703,0.11000000,8.03000000,0.00000000
306,0,-0.14000000,0.00700000,0.99300000,0.01000000,-0.12000000,-0.03000000,-0.42925151,0.00770314,3.04166267,0.11000000,8.03000000,0.00000000
307,0,-0.14100000,0.00100000,0.99200000,-0.05000000,0.25000000,-0.12000000,-0.43704740,0.00775843,3.09651033,0.11000000,8.03000000,0.00000000
308,0,-0.14100000,0.00000000,0.98500000,0.07000000,0.01000000,-0.07000000,-0.43718184,0.00775843,3.09744947,0.11000000,8.03000000,0.00000000
309,0,-0.13800000,0.00300000,0.98700000,0.19000000,-0.23000000,-0.31000000,-0.43730634,0.00776114,3.09833991,0.11000000,8.03000000,0.00000000
310,0,-0.13800000,0.00400000,0.99100000,0.02000000,-0.16000000,-0.09000000,-0.43743021,0.00776473,3.09922948,0.11000000,8.03000000,0.00000000
311,0,-0.13500000,-0.00200000,0.98700000,-0.11000000,0.19000000,-0.05000000,-0.43755210,0.00776292,3.10012064,0.11000000,8.03000000,0.00000000
312,0,-0.14200000,0.00100000,0.99200000,-0.11000000,-0.01000000,-0.02000000,-0.43767970,0.00776382,3.10101205,0.11000000,8.03000000,0.00000000
313,0,-0.13900000,0.00100000,0.98900000,-0.08000000,-0.14000000,-0.14000000,-0.44539649,0.00781934,3.15591785,0.11000000,8.03000000,0.00000000
314,0,-0.13800000,-0.00400000,0.99200000,-0.22000000,-0.14000000,0.14000000,-0.44552794,0.00781553,3.15686271,0.11000000,8.03000000,-0.00000000
315,0,-0.13400000,-0.00000000,0.98900000,-0.15000000,0.03000000,-0.24000000,-0.44564883,0.00781553,3.15775496,0.11000000,8.03000000,0.00000000
316,0,-0.14100000,0.00300000,0.98700000,0.10000000,-0.25000000,0.12000000,-0.44577486,0.00781821,3.15863717,0.11000000,8.03000000,0.00000000
317,0,-0.14300000,0.00200000,0.98900000,0.02000000,0.13000000,-0.11000000,-0.44590428,0.00782002,3.15953225,0.11000000,8.03000000,-0.00000000
318,0,-0.13700000,0.00200000,0.99100000,0.07000000,0.10000000,-0.05000000,-0.44602804,0.00782183,3.16042749,0.11000000,8.03000000,-0.00000000
319,0,-0.13800000,0.00700000,0.98900000,0.16000000,0.02000000,-0.00000000,-0.45379898,0.00821600,3.21611920,0.11000000,8.03000000,-0.00000000
320,0,-0.13700000,0.00500000,0.98700000,-0.06000000,0.02000000,0.09000000,-0.45392894,0.00822075,3.21705553,0.11000000,8.03000000,-0.00000000
321,0,-0.13300000,0.00100000,0.98500000,0.13000000,0.02000000,0.05000000,-0.45404868,0.00822165,3.21794230,0.11000000,8.03000000,-0.00000000
322,0,-0.14200000,0.00100000,0.98700000,-0.14000000,-0.25000000,-0.22000000,-0.45417719,0.00822255,3.21883557,0.11000000,8.03000000,-0.00000000
323,0,-0.14000000,0.00200000,0.99100000,-0.11000000,0.03000000,-0.03000000,-0.45430407,0.00822436,3.21973364,0.12000000,8.03000000,-0.00000000
324,0,-0.14000000,0.00000000,0.99300000,-0.09000000,0.00000000,0.28000000,-0.45442940,0.00822436,3.22062264,0.12000000,8.03000000,-0.00000000
325,0,-0.14000000,0.00200000,0.99000000,0.14000000,-0.09000000,-0.08000000,-0.46218682,0.00833519,3.27547868,0.11000000,8.03000000,-0.00000000
326,0,-0.13900000,-0.00100000,0.99300000,-0.16000000,0.22000000,0.02000000,-0.46233658,0.00833411,3.27654856,0.11000000,8.03000000,-0.00000000
327,0,-0.14500000,0.00500000,0.98700000,0.09000000,0.07000000,-0.12000000,-0.46246813,0.00833864,3.27744394,0.11000000,8.02000000,-0.00000000
328,0,-0.13800000,-0.00100000,0.99000000,-0.14000000,-0.04000000,0.05000000,-0.46259091,0.00833775,3.27832482,0.11000000,8.02000000,-0.00000000
329,0,-0.13600000,-0.00100000,0.98700000,-0.03000000,0.00000000,-0.14000000,-0.46271163,0.00833687,3.27920092,0.11000000,8.03000000,-0.00000000
330,0,-0.14300000,0.00400000,0.98600000,-0.08000000,0.08000000,0.06000000,-0.46283884,0.00834042,3.28007800,0.11000000,8.03000000,-0.00000000
331,0,-0.13500000,0.00400000,0.98700000,0.12000000,-0.07000000,0.26000000,-0.47031785,0.00856202,3.33475794,0.11000000,8.03000000,-0.00000000
332,0,-0.13600000,0.00600000,0.99300000,-0.15000000,-0.02000000,-0.05000000,-0.47044438,0.00856761,3.33568173,0.11000000,8.03000000,-0.00000000
333,0,-0.13700000,0.00500000,0.98900000,-0.17000000,-0.10000000,-0.10000000,-0.47056579,0.00857204,3.33655819,0.11000000,8.03000000,-0.00000000
334,0,-0.13800000,0.00100000,0.98400000,0.07000000,-0.22000000,0.03000000,-0.47069098,0.00857294,3.33745085,0.11000000,8.03000000,-0.00000000
335,0,-0.13800000,0.00100000,0.99000000,0.03000000,-0.09000000,-0.17000000,-0.47081535,0.00857385,3.33834306,0.11000000,8.03000000,-0.00000000
336,0,-0.14100000,-0.00100000,0.98900000,-0.10000000,0.02000000,-0.05000000,-0.47094837,0.00857290,3.33927611,0.11000000,8.03000000,-0.00000000
337,0,-0.14200000,0.00400000,0.99000000,0.05000000,0.28000000,0.02000000,-0.47894255,0.00879809,3.39501020,0.11000000,8.03000000,-0.00000000
338,0,-0.14100000,0.00600000,0.99100000,0.12000000,-0.03000000,0.10000000,-0.47907410,0.00880369,3.39593474,0.11000000,8.03000000,-0.00000000
339,0,-0.14400000,-0.00500000,0.98800000,0.08000000,0.11000000,0.02000000,-0.47920408,0.00879918,3.39682656,0.11000000,8.03000000,-0.00000000
340,0,-0.14200000,0.00700000,0.99000000,-0.10000000,0.05000000,-0.12000000,-0.47933104,0.00880543,3.39771169,0.11000000,8.03000000,-0.00000000
341,0,-0.13500000,-0.00400000,0.99300000,-0.05000000,-0.13000000,-0.01000000,-0.47945058,0.00880189,3.39859098,0.11000000,8.03000000,-0.00000000
342,0,-0.13600000,0.00400000,0.98800000,0.11000000,0.29000000,0.01000000,-0.47957155,0.00880545,3.39946984,0.11000000,8.03000000,-0.00000000
343,0,-0.14100000,-0.00100000,0.99100000,-0.07000000,-0.06000000,0.20000000,-0.48738805,0.00875001,3.45440705,0.11000000,8.03000000,-0.00000000
344,0,-0.14000000,-0.00200000,0.98800000,-0.14000000,-0.10000000,-0.04000000,-0.48751906,0.00874814,3.45533161,0.11000000,8.03000000,-0.00000000
345,0,-0.14300000,0.00100000,0.99100000,0.12000000,0.04000000,-0.18000000,-0.48764817,0.00874905,3.45622638,0.11000000,8.03000000,-0.00000000
346,0,-0.13900000,0.00400000,0.98800000,-0.04000000,-0.26000000,-0.14000000,-0.48777314,0.00875264,3.45711467,0.11000000,8.03000000,-0.00000000
347,0,-0.14100000,0.00500000,0.98900000,0.13000000,0.05000000,-0.00000000,-0.48789864,0.00875709,3.45799489,0.11000000,8.03000000,-0.00000000
348,0,-0.13900000,0.00200000,0.98800000,0.01000000,0.05000000,0.21000000,-0.48802251,0.00875887,3.45887541,0.11000000,8.03000000,-0.00000000
349,0,-0.13600000,0.00300000,0.99300000,0.05000000,0.22000000,-0.03000000,-0.49559620,0.00892594,3.51417444,0.11000000,8.03000000,-0.00000000
350,0,-0.13700000,-0.00100000,0.99400000,0.01000000,-0.19000000,0.12000000,-0.49572796,0.00892498,3.51513045,0.12000000,8.03000000,-0.00000000
351,0,-0.13400000,-0.00100000,0.99000000,0.23000000,0.02000000,-0.01000000,-0.49584895,0.00892408,3.51602431,0.11000000,8.03000000,-0.00000000
352,0,-0.13600000,-0.00100000,0.99000000,-0.06000000,-0.02000000,0.08000000,-0.49597077,0.00892318,3.51691110,0.12000000,8.03000000,-0.00000000
353,0,-0.13700000,0.00400000,0.99000000,-0.01000000,-0.07000000,-0.08000000,-0.49609408,0.00892678,3.51780213,0.12000000,8.03000000,-0.00000000
354,0,-0.13900000,0.00300000,0.99200000,0.15000000,0.16000000,-0.16000000,-0.49622034,0.00892951,3.51870323,0.12000000,8.03000000,-0.00000000
355,0,-0.13800000,0.00000000,0.98700000,-0.19000000,0.20000000,-0.08000000,-0.50396976,0.00892951,3.57412842,0.11000000,8.03000000,-0.00000000
356,0,-0.14400000,-0.00100000,0.98600000,-0.13000000,0.17000000,0.25000000,-0.50410812,0.00892854,3.57507580,0.11000000,8.03000000,-0.00000000
357,0,-0.14300000,0.00400000,0.99300000,-0.05000000,0.10000000,0.09000000,-0.50423774,0.00893217,3.57597592,0.11000000,8.03000000,-0.00000000
358,0,-0.13700000,0.00600000,0.99000000,-0.14000000,-0.04000000,0.18000000,-0.50436010,0.00893753,3.57686010,0.11000000,8.03000000,-0.00000000
359,0,-0.14200000,-0.00100000,0.99400000,-0.06000000,-0.12000000,0.00000000,-0.50448706,0.00893664,3.57774881,0.11000000,8.03000000,-0.00000000
360,0,-0.13900000,-0.00100000,0.99000000,0.25000000,0.03000000,-0.10000000,-0.50461236,0.00893573,3.57864125,0.11000000,8.03000000,-0.00000000
361,0,-0.13700000,0.00300000,0.99300000,-0.14000000,-0.10000000,-0.31000000,-0.51220388,0.00910197,3.63366590,0.11000000,8.03000000,-0.00000000
362,0,-0.13900000,0.00600000,0.99500000,-0.08000000,-0.03000000,-0.33000000,-0.51233945,0.00910782,3.63463639,0.11000000,8.03000000,-0.00000000
363,0,-0.14400000,0.00200000,0.98800000,0.03000000,0.05000000,0.01000000,-0.51246926,0.00910963,3.63552703,0.11000000,8.03000000,-0.00000000
364,0,-0.13900000,0.00400000,0.99000000,0.05000000,0.04000000,-0.11000000,-0.51259410,0.00911322,3.63641618,0.11000000,8.02000000,-0.00000000
365,0,-0.13800000,0.00500000,0.99200000,-0.10000000,-0.20000000,0.01000000,-0.51272373,0.00911792,3.63734803,0.11000000,8.02000000,-0.00000000
366,0,-0.14400000,0.00200000,0.99400000,0.14000000,0.04000000,-0.03000000,-0.51285423,0.00911973,3.63824882,0.11000000,8.02000000,-0.00000000
367,0,-0.13600000,0.00400000,0.99300000,0.30000000,0.22000000,0.05000000,-0.52079850,0.00935338,3.69625367,0.12000000,8.03000000,-0.00000000
368,0,-0.14400000,0.00200000,0.99000000,-0.10000000,0.20000000,-0.09000000,-0.52093621,0.00935530,3.69720040,0.12000000,8.03000000,-0.00000000
369,0,-0.13900000,0.00100000,0.98800000,0.06000000,0.14000000,0.28000000,-0.52106370,0.00935621,3.69810659,0.12000000,8.03000000,-0.00000000
370,0,-0.14100000,0.00100000,0.98800000,-0.10000000,-0.01000000,0.00000000,-0.52119023,0.00935711,3.69899323,0.12000000,8.03000000,-0.00000000
371,0,-0.13200000,-0.00300000,0.99200000,0.13000000,-0.04000000,0.15000000,-0.52130831,0.00935443,3.69988062,0.12000000,8.03000000,-0.00000000
372,0,-0.14000000,0.00100000,0.98800000,-0.33000000,0.20000000,-0.16000000,-0.52143422,0.00935533,3.70076915,0.12000000,8.03000000,-0.00000000
373,0,-0.14400000,0.00300000,0.99200000,-0.29000000,-0.29000000,0.06000000,-0.52156592,0.00935807,3.70167640,0.12000000,8.03000000,-0.00000000
374,0,-0.13900000,0.00000000,0.99300000,0.16000000,-0.27000000,0.18000000,-0.52939223,0.00935807,3.75758673,0.12000000,8.03000000,-0.00000000
375,0,-0.14100000,0.00800000,0.99100000,-0.11000000,-0.03000000,-0.01000000,-0.52952660,0.00936569,3.75853111,0.12000000,8.03000000,-0.00000000
376,0,-0.13700000,-0.00000000,0.99100000,0.07000000,0.16000000,-0.03000000,-0.52965030,0.00936569,3.75942587,0.12000000,8.03000000,-0.00000000
377,0,-0.14100000,0.00300000,0.98800000,0.05000000,-0.01000000,0.00000000,-0.52977670,0.00936838,3.76031157,0.12000000,8.03000000,-0.00000000
378,0,-0.13300000,-0.00200000,0.99400000,-0.11000000,0.15000000,0.05000000,-0.52989710,0.00936657,3.76121141,0.12000000,8.03000000,-0.00000000
379,0,-0.13900000,0.00400000,0.99300000,-0.16000000,-0.07000000,-0.13000000,-0.53002260,0.00937018,3.76210798,0.12000000,8.03000000,-0.00000000
380,0,-0.13900000,0.00300000,0.99300000,-0.32000000,-0.14000000,0.15000000,-0.53781495,0.00953836,3.81777564,0.11000000,8.03000000,-0.00000000
381,0,-0.14200000,0.00200000,0.99000000,0.00000000,-0.13000000,0.09000000,-0.53801433,0.00954117,3.81916565,0.12000000,8.03000000,-0.00000000
382,0,-0.14000000,0.00100000,0.99000000,0.12000000,-0.11000000,-0.04000000,-0.53820011,0.00954250,3.82047941,0.12000000,8.03000000,-0.00000000
383,0,-0.14200000,0.00100000,0.99000000,-0.07000000,0.23000000,-0.08000000,-0.53841885,0.00954404,3.82200443,0.12000000,8.03000000,-0.00000000
384,0,-0.13700000,0.00700000,0.99300000,0.13000000,-0.05000000,-0.06000000,-0.53860654,0.00955363,3.82336480,0.12000000,8.03000000,-0.00000000
385,0,-0.14100000,0.00500000,0.99300000,0.25000000,-0.14000000,0.08000000,-0.53878608,0.00956000,3.82462928,0.12000000,8.03000000,-0.00000000
386,0,-0.13400000,0.00100000,0.99400000,0.07000000,-0.14000000,0.01000000,-0.54583891,0.00961263,3.87694652,0.12000000,8.03000000,-0.00000000
387,0,-0.14200000,0.00100000,0.98900000,0.07000000,0.15000000,-0.06000000,-0.54601405,0.00961386,3.87816630,0.12000000,8.03000000,-0.00000000
388,0,-0.14000000,-0.00200000,0.99000000,-0.00000000,-0.17000000,-0.15000000,-0.54618164,0.00961147,3.87935143,0.12000000,8.03000000,-0.00000000
389,0,-0.13900000,0.00300000,0.98900000,-0.08000000,0.17000000,0.03000000,-0.54634860,0.00961507,3.88053937,0.12000000,8.03000000,-0.00000000
390,0,-0.14300000,0.00400000,0.99200000,-0.15000000,-0.01000000,-0.08000000,-0.54652067,0.00961988,3.88173304,0.12000000,8.03000000,0.00000000
391,0,-0.14400000,0.00100000,0.98300000,-0.01000000,-0.09000000,0.14000000,-0.54669851,0.00962112,3.88294705,0.12000000,8.03000000,0.00000000
392,0,-0.14300000,0.00400000,0.98700000,0.04000000,0.05000000,0.30000000,-0.55453901,0.00984043,3.93706292,0.12000000,8.03000000,0.00000000
393,0,-0.13700000,0.00300000,0.98700000,-0.17000000,-0.18000000,-0.07000000,-0.55470873,0.00984415,3.93828564,0.12000000,8.03000000,0.00000000
394,0,-0.13500000,-0.00000000,0.99000000,-0.04000000,0.00000000,-0.27000000,-0.55487175,0.00984415,3.93948115,0.12000000,8.03000000,0.00000000
395,0,-0.13800000,0.00200000,0.99100000,0.24000000,0.07000000,0.02000000,-0.55503653,0.00984654,3.94066441,0.12000000,8.03000000,0.00000000
396,0,-0.14300000,0.00100000,0.98700000,0.03000000,-0.24000000,-0.02000000,-0.55520730,0.00984773,3.94184312,0.12000000,8.03000000,0.00000000
397,0,-0.13900000,0.00100000,0.98900000,-0.01000000,0.16000000,0.11000000,-0.55537917,0.00984897,3.94306596,0.12000000,8.03000000,0.00000000
398,0,-0.13800000,0.00300000,0.99000000,0.22000000,0.11000000,-0.14000000,-0.56283911,0.01001114,3.99658298,0.12000000,8.03000000,-0.00000000
399,0,-0.13900000,0.00000000,0.98800000,0.01000000,-0.03000000,0.14000000,-0.56302013,0.01001114,3.99786960,0.12000000,8.03000000,-0.00000000
400,0,-0.13900000,-0.00100000,0.98900000,-0.12000000,0.04000000,0.07000000,-0.56319749,0.01000987,3.99913158,0.12000000,8.03000000,-0.00000000
401,0,-0.14300000,0.00200000,0.98900000,0.17000000,-0.06000000,-0.01000000,-0.56337805,0.01001239,4.00038035,0.12000000,8.03000000,-0.00000000
402,0,-0.14200000,0.00100000,0.99000000,0.04000000,0.10000000,0.14000000,-0.56356165,0.01001368,4.00166037,0.11000000,8.03000000,-0.00000000
403,0,-0.14100000,0.00100000,0.99200000,-0.17000000,0.11000000,0.12000000,-0.56374628,0.01001499,4.00295929,0.11000000,8.03000000,-0.00000000
404,0,-0.13700000,0.00100000,0.98900000,0.07000000,0.19000000,0.20000000,-0.57109125,0.01006861,4.05598249,0.12000000,8.03000000,-0.00000000
405,0,-0.13800000,0.00100000,0.98700000,-0.25000000,-0.03000000,0.03000000,-0.57127636,0.01006995,4.05730640,0.11000000,8.03000000,0.00000000
406,0,-0.14100000,0.00200000,0.98900000,-0.06000000,-0.09000000,0.05000000,-0.57145990,0.01007255,4.05859384,0.11000000,8.03000000,0.00000000
407,0,-0.13600000,-0.00000000,0.98800000,0.07000000,0.06000000,0.39000000,-0.57163111,0.01007255,4.05983759,0.11000000,8.03000000,0.00000000
408,0,-0.14000000,-0.00100000,0.98700000,0.09000000,0.11000000,0.05000000,-0.57180655,0.01007130,4.06107443,0.11000000,8.04000000,0.00000000
409,0,-0.14200000,0.00100000,0.98800000,-0.09000000,-0.03000000,-0.10000000,-0.57199251,0.01007261,4.06236834,0.11000000,8.04000000,-0.00000000
410,0,-0.13700000,0.00200000,0.98900000,0.24000000,0.08000000,0.00000000,-0.57942881,0.01018117,4.11605083,0.11000000,8.04000000,-0.00000000
411,0,-0.14000000,0.00100000,0.99300000,-0.17000000,-0.19000000,-0.22000000,-0.57961176,0.01018247,4.11734846,0.11000000,8.04000000,-0.00000000
412,0,-0.13800000,-0.00000000,0.99200000,-0.11000000,0.06000000,-0.10000000,-0.57978956,0.01018247,4.11862656,0.11000000,8.04000000,-0.00000000
413,0,-0.14000000,0.00400000,0.99000000,0.09000000,-0.08000000,0.03000000,-0.57996730,0.01018755,4.11988345,0.11000000,8.04000000,-0.00000000
414,0,-0.13700000,0.00100000,0.98800000,0.04000000,0.14000000,-0.04000000,-0.58013849,0.01018880,4.12111801,0.11000000,8.04000000,-0.00000000
415,0,-0.13900000,-0.00100000,0.98800000,-0.12000000,-0.19000000,-0.05000000,-0.58031487,0.01018753,4.12237164,0.11000000,8.04000000,-0.00000000
416,0,-0.14700000,0.00300000,0.99600000,0.11000000,0.20000000,-0.01000000,-0.58818878,0.01034823,4.17572146,0.11000000,8.04000000,-0.00000000
417,0,-0.13600000,0.00000000,0.98900000,-0.10000000,-0.28000000,-0.05000000,-0.58836579,0.01034823,4.17700867,0.11000000,8.03000000,-0.00000000
418,0,-0.13800000,-0.00200000,0.98900000,0.24000000,-0.05000000,0.08000000,-0.58854241,0.01034567,4.17827442,0.11000000,8.04000000,-0.00000000
419,0,-0.14400000,0.00400000,0.99000000,-0.12000000,0.21000000,-0.03000000,-0.58872379,0.01035070,4.17952139,0.11000000,8.04000000,-0.00000000
420,0,-0.14300000,0.00300000,0.99100000,-0.28000000,-0.18000000,0.10000000,-0.58890254,0.01035445,4.18076017,0.11000000,8.04000000,-0.01000000
421,0,-0.13800000,-0.00100000,0.99300000,0.18000000,-0.25000000,-0.22000000,-0.58907883,0.01035318,4.18202867,0.11000000,8.03000000,-0.01000000
422,0,-0.14200000,0.00100000,0.99200000,0.20000000,0.01000000,0.00000000,-0.59672870,0.01040705,4.23547004,0.11000000,8.04000000,-0.00000000
423,0,-0.14200000,0.00200000,0.98800000,-0.15000000,0.05000000,0.23000000,-0.59691917,0.01040973,4.23679529,0.11000000,8.04000000,-0.01000000
424,0,-0.14200000,0.00700000,0.99300000,0.15000000,-0.13000000,-0.10000000,-0.59709769,0.01041853,4.23804367,0.10000000,8.04000000,-0.00000000
425,0,-0.13700000,0.00200000,0.99200000,0.05000000,0.22000000,0.16000000,-0.59726865,0.01042103,4.23928157,0.11000000,8.04000000,-0.00000000
426,0,-0.14200000,0.00400000,0.98900000,-0.01000000,0.08000000,0.04000000,-0.59744602,0.01042602,4.24051690,0.11000000,8.04000000,-0.00000000
427,0,-0.13500000,0.00700000,0.98800000,0.14000000,-0.07000000,0.14000000,-0.59762533,0.01043532,4.24182920,0.11000000,8.04000000,-0.00000000
428,0,-0.13600000,-0.00000000,0.98800000,-0.05000000,-0.14000000,0.21000000,-0.60499227,0.01043532,4.29534787,0.11000000,8.04000000,-0.00000000
429,0,-0.13700000,-0.00000000,0.99200000,-0.01000000,-0.22000000,-0.03000000,-0.60524721,0.01043532,4.29719384,0.11000000,8.04000000,-0.00000000
430,0,-0.14100000,0.00200000,0.98900000,0.15000000,0.17000000,-0.25000000,-0.60541083,0.01043764,4.29834146,0.10000000,8.04000000,-0.00000000
431,0,-0.14000000,0.00100000,0.99300000,-0.01000000,0.06000000,-0.03000000,-0.60557552,0.01043882,4.29950958,0.10000000,8.04000000,-0.00000000
432,0,-0.13900000,0.00300000,0.98800000,0.12000000,-0.06000000,-0.05000000,-0.60574244,0.01044242,4.30069609,0.10000000,8.04000000,-0.01000000
433,0,-0.14200000,0.00600000,0.98700000,0.15000000,0.13000000,0.01000000,-0.60590505,0.01044929,4.30182633,0.10000000,8.04000000,-0.01000000
434,0,-0.14300000,0.00300000,0.98700000,0.16000000,0.03000000,0.16000000,-0.61353907,0.01060945,4.35451710,0.10000000,8.04000000,-0.01000000
435,0,-0.13800000,0.00200000,0.99200000,0.23000000,-0.07000000,0.08000000,-0.61370302,0.01061182,4.35569564,0.11000000,8.04000000,-0.01000000
436,0,-0.13900000,0.00000000,0.98600000,-0.05000000,0.08000000,0.21000000,-0.61390684,0.01061182,4.35714139,0.11000000,8.04000000,-0.00000000
437,0,-0.14000000,0.00300000,0.98900000,0.00000000,0.03000000,0.05000000,-0.61412493,0.01061650,4.35868208,0.11000000,8.04000000,-0.00000000
438,0,-0.14000000,0.00300000,0.98900000,0.07000000,-0.08000000,-0.02000000,-0.61430831,0.01062043,4.35997754,0.11000000,8.04000000,-0.00000000
439,0,-0.13800000,0.00100000,0.99000000,-0.02000000,-0.22000000,-0.08000000,-0.61446657,0.01062157,4.36111287,0.11000000,8.04000000,-0.00000000
440,0,-0.14100000,0.00400000,0.99300000,-0.01000000,-0.05000000,0.02000000,-0.62214964,0.01083953,4.41522129,0.11000000,8.04000000,-0.00000000
441,0,-0.14000000,0.00000000,0.99000000,0.01000000,-0.03000000,-0.04000000,-0.62253777,0.01083953,4.41796590,0.11000000,8.04000000,-0.00000000
442,0,-0.14400000,0.00100000,0.98900000,0.04000000,0.03000000,0.11000000,-0.62273549,0.01084091,4.41932384,0.11000000,8.04000000,-0.00000000
443,0,-0.14000000,0.00500000,0.99100000,0.08000000,0.05000000,-0.15000000,-0.62291623,0.01084736,4.42060326,0.11000000,8.04000000,-0.00000000
444,0,-0.13700000,0.00700000,0.99000000,0.17000000,-0.35000000,0.03000000,-0.62309702,0.01085660,4.42190971,0.11000000,8.04000000,-0.00000000
445,0,-0.13800000,0.00000000,0.98900000,0.03000000,-0.05000000,-0.09000000,-0.62333579,0.01085660,4.42362088,0.11000000,8.04000000,-0.01000000
446,0,-0.13700000,0.00300000,0.98800000,0.12000000,0.15000000,0.00000000,-0.63036413,0.01101050,4.47430698,0.11000000,8.04000000,-0.01000000
447,0,-0.13900000,0.00300000,0.99100000,-0.06000000,-0.02000000,0.18000000,-0.63054547,0.01101442,4.47559987,0.11000000,8.04000000,-0.01000000
448,0,-0.13500000,0.00500000,0.99300000,-0.07000000,-0.02000000,-0.03000000,-0.63071506,0.01102070,4.47684730,0.11000000,8.04000000,-0.01000000
449,0,-0.14000000,0.00400000,0.99200000,-0.29000000,-0.01000000,0.15000000,-0.63089303,0.01102578,4.47810838,0.10000000,8.04000000,-0.00000000
450,0,-0.14100000,0.00200000,0.99000000,0.13000000,0.05000000,-0.07000000,-0.63107184,0.01102832,4.47936384,0.11000000,8.04000000,-0.00000000
451,0,-0.13400000,0.00500000,0.98800000,-0.06000000,0.11000000,0.15000000,-0.63129145,0.01103651,4.48098307,0.11000000,8.04000000,-0.00000000
452,0,-0.13600000,-0.00100000,0.99000000,0.06000000,0.11000000,-0.14000000,-0.63852020,0.01098336,4.53360410,0.11000000,8.04000000,-0.00000000
453,0,-0.14000000,-0.00100000,0.98900000,0.19000000,0.11000000,0.15000000,-0.63869083,0.01098214,4.53480949,0.11000000,8.04000000,-0.00000000
454,0,-0.14600000,0.00200000,0.99200000,0.05000000,0.04000000,0.06000000,-0.63885760,0.01098443,4.53594262,0.11000000,8.04000000,-0.00000000
455,0,-0.14100000,0.00400000,0.98700000,-0.03000000,0.37000000,-0.11000000,-0.63901571,0.01098891,4.53704932,0.11000000,8.04000000,-0.00000000
456,0,-0.14200000,-0.00000000,0.99500000,-0.08000000,-0.19000000,-0.11000000,-0.63917753,0.01098891,4.53818327,0.11000000,8.04000000,-0.00000000
457,0,-0.13900000,0.00500000,0.99500000,-0.06000000,-0.01000000,-0.21000000,-0.63933545,0.01099459,4.53931365,0.11000000,8.04000000,-0.00000000
458,0,-0.14400000,0.00500000,0.98700000,0.02000000,0.07000000,0.10000000,-0.64718408,0.01126711,4.59310949,0.11000000,8.04000000,-0.00000000
459,0,-0.14200000,0.00100000,0.99200000,-0.05000000,-0.10000000,-0.13000000,-0.64738159,0.01126851,4.59448929,0.11000000,8.04000000,-0.00000000
460,0,-0.14100000,0.00100000,0.98900000,-0.34000000,-0.12000000,-0.10000000,-0.64757237,0.01126986,4.59582744,0.11000000,8.04000000,-0.00000000
461,0,-0.13900000,0.00400000,0.99000000,0.23000000,0.04000000,0.12000000,-0.64775958,0.01127525,4.59716079,0.11000000,8.04000000,-0.00000000
462,0,-0.13800000,-0.00300000,0.99400000,0.18000000,-0.09000000,-0.20000000,-0.64794393,0.01127124,4.59848864,0.11000000,8.04000000,-0.00000000
463,0,-0.13300000,-0.00000000,0.98900000,-0.02000000,-0.00000000,-0.05000000,-0.64818219,0.01127124,4.60026041,0.11000000,8.04000000,-0.00000000
464,0,-0.13700000,0.00900000,0.99300000,-0.08000000,-0.22000000,-0.07000000,-0.65551619,0.01175303,4.65341852,0.11000000,8.04000000,-0.00000000
465,0,-0.13800000,0.00300000,0.98900000,0.11000000,0.03000000,0.19000000,-0.65570748,0.01175719,4.65478944,0.11000000,8.04000000,-0.00000000
466,0,-0.14500000,0.00400000,0.99000000,0.11000000,-0.06000000,0.06000000,-0.65590091,0.01176253,4.65611005,0.11000000,8.04000000,-0.00000000
467,0,-0.14100000,0.00100000,0.98800000,-0.11000000,-0.13000000,-0.10000000,-0.65609158,0.01176388,4.65744613,0.11000000,8.04000000,-0.00000000
468,0,-0.14400000,0.00200000,0.99200000,-0.17000000,-0.01000000,-0.15000000,-0.65628755,0.01176660,4.65879614,0.11000000,8.04000000,0.00000000
469,0,-0.14500000,0.00500000,0.99600000,0.07000000,0.17000000,-0.04000000,-0.65648350,0.01177336,4.66014209,0.11000000,8.04000000,0.00000000
470,0,-0.14400000,-0.00400000,0.99200000,0.01000000,-0.07000000,-0.16000000,-0.66413482,0.01156082,4.71285122,0.10000000,8.04000000,0.00000000
471,0,-0.13900000,0.00300000,0.99100000,-0.16000000,0.10000000,-0.17000000,-0.66434709,0.01156540,4.71436454,0.10000000,8.04000000,0.00000000
472,0,-0.13500000,0.00400000,0.98800000,-0.03000000,0.23000000,-0.14000000,-0.66456904,0.01157198,4.71598895,0.10000000,8.04000000,0.00000000
473,0,-0.14200000,0.00100000,0.99100000,0.11000000,0.04000000,0.05000000,-0.66475488,0.01157329,4.71728585,0.10000000,8.04000000,0.00000000
474,0,-0.14100000,-0.00100000,0.99000000,0.12000000,-0.05000000,-0.02000000,-0.66499776,0.01157157,4.71899120,0.10000000,8.04000000,0.00000000
475,0,-0.13900000,-0.00200000,0.99300000,0.24000000,-0.05000000,-0.03000000,-0.66521131,0.01156849,4.72051681,0.10000000,8.04000000,0.00000000
476,0,-0.13900000,0.00500000,0.98800000,-0.13000000,-0.15000000,0.06000000,-0.67249768,0.01183059,4.77230768,0.10000000,8.04000000,0.00000000
477,0,-0.13900000,0.00400000,0.99000000,0.00000000,0.06000000,-0.31000000,-0.67267892,0.01183581,4.77359855,0.10000000,8.04000000,-0.00000000
478,0,-0.14200000,0.00100000,0.99000000,-0.30000000,0.03000000,0.13000000,-0.67285660,0.01183706,4.77483726,0.10000000,8.04000000,0.00000000
479,0,-0.14300000,0.00200000,0.98800000,0.03000000,0.09000000,-0.08000000,-0.67304769,0.01183973,4.77615756,0.10000000,8.04000000,0.00000000
480,0,-0.13800000,0.00100000,0.99600000,-0.30000000,-0.33000000,-0.09000000,-0.67322638,0.01184103,4.77744723,0.10000000,8.04000000,-0.00000000
481,0,-0.14400000,0.00700000,0.98900000,0.01000000,-0.01000000,0.17000000,-0.67340865,0.01184989,4.77869907,0.10000000,8.04000000,0.00000000
482,0,-0.14000000,0.00000000,0.98800000,0.08000000,-0.24000000,-0.26000000,-0.68099958,0.01184989,4.83226933,0.10000000,8.04000000,-0.00000000
483,0,-0.13600000,0.00700000,0.99100000,0.07000000,0.11000000,-0.14000000,-0.68117698,0.01185902,4.83356198,0.10000000,8.04000000,-0.00000000
484,0,-0.13700000,-0.00300000,0.99000000,0.21000000,-0.12000000,-0.10000000,-0.68135258,0.01185517,4.83483090,0.10000000,8.04000000,-0.00000000
485,0,-0.14300000,-0.00200000,0.99100000,-0.29000000,-0.18000000,0.04000000,-0.68153344,0.01185264,4.83608433,0.10000000,8.04000000,-0.00000000
486,0,-0.13800000,0.00200000,0.99000000,0.03000000,-0.17000000,0.08000000,-0.68170641,0.01185515,4.83732516,0.10000000,8.04000000,-0.00000000
487,0,-0.13900000,0.00400000,0.98900000,0.34000000,-0.06000000,-0.06000000,-0.68188646,0.01186033,4.83860624,0.11000000,8.03000000,-0.00000000
488,0,-0.14100000,0.00500000,0.99100000,-0.07000000,0.00000000,-0.03000000,-0.68943842,0.01212813,4.89168422,0.11000000,8.03000000,-0.00000000
489,0,-0.14100000,0.00000000,0.98900000,0.29000000,0.08000000,-0.22000000,-0.68962469,0.01212813,4.89299077,0.11000000,8.03000000,-0.00000000
490,0,-0.14100000,0.00100000,0.98900000,0.03000000,-0.11000000,-0.04000000,-0.68980855,0.01212944,4.89428033,0.11000000,8.04000000,-0.00000000
491,0,-0.14200000,-0.00100000,0.98800000,-0.02000000,0.05000000,-0.29000000,-0.68999065,0.01212815,4.89554740,0.11000000,8.04000000,-0.00000000
492,0,-0.13700000,0.00300000,0.98800000,-0.13000000,0.19000000,0.01000000,-0.69016498,0.01213197,4.89680457,0.11000000,8.04000000,-0.00000000
493,0,-0.14100000,0.00100000,0.99000000,0.01000000,-0.01000000,-0.04000000,-0.69035175,0.01213329,4.89811598,0.11000000,8.04000000,-0.00000000
494,0,-0.14000000,0.00500000,0.99200000,0.09000000,-0.31000000,-0.11000000,-0.69828104,0.01241648,4.95430064,0.11000000,8.04000000,-0.00000000
495,0,-0.13600000,0.00400000,0.99500000,0.25000000,0.26000000,0.07000000,-0.69846035,0.01242176,4.95561250,0.11000000,8.04000000,-0.00000000
496,0,-0.14000000,0.00100000,0.99100000,-0.10000000,-0.36000000,0.16000000,-0.69863569,0.01242301,4.95685364,0.11000000,8.04000000,-0.00000000
497,0,-0.14000000,0.00000000,0.98700000,-0.05000000,-0.11000000,0.15000000,-0.69881503,0.01242301,4.95811801,0.11000000,8.03000000,-0.00000000
498,0,-0.13900000,0.00200000,0.98700000,-0.05000000,0.14000000,0.05000000,-0.69899280,0.01242557,4.95938026,0.11000000,8.03000000,-0.00000000
499,0,-0.13900000,0.00100000,0.99100000,-0.09000000,-0.12000000,0.05000000,-0.69916847,0.01242683,4.96063275,0.11000000,8.04000000,-0.00000000
500,0,-0.13800000,-0.00100000,0.99100000,-0.11000000,-0.15000000,0.14000000,-0.69934479,0.01242555,4.96189893,0.11000000,8.03000000,0.00000000
501,0,-0.13200000,-0.00100000,0.99200000,0.10000000,-0.10000000,-0.01000000,-0.70651136,0.01237126,5.01575680,0.11000000,8.03000000,-0.00000000
502,0,-0.14100000,0.00100000,0.99100000,-0.09000000,-0.24000000,-0.44000000,-0.70670026,0.01237260,5.01708441,0.11000000,8.03000000,-0.00000000
503,0,-0.14000000,-0.00100000,0.99200000,-0.12000000,0.07000000,-0.23000000,-0.70687800,0.01237133,5.01834384,0.11000000,8.03000000,-0.00000000
504,0,-0.13700000,0.00300000,0.98700000,-0.11000000,0.15000000,0.09000000,-0.70705089,0.01237512,5.01958938,0.11000000,8.03000000,-0.00000000
505,0,-0.13800000,0.00500000,0.98900000,0.12000000,0.10000000,0.18000000,-0.70722615,0.01238147,5.02084546,0.11000000,8.04000000,-0.00000000
506,0,-0.14100000,0.00400000,0.99300000,-0.05000000,0.08000000,-0.07000000,-0.70740469,0.01238653,5.02210284,0.10000000,8.04000000,-0.00000000
507,0,-0.14600000,0.00500000,0.99000000,-0.17000000,0.15000000,-0.06000000,-0.71521916,0.01265415,5.07509138,0.10000000,8.04000000,-0.00000000
508,0,-0.13600000,0.00100000,0.99100000,-0.05000000,-0.02000000,-0.10000000,-0.71539857,0.01265547,5.07639868,0.10000000,8.04000000,-0.00000000
509,0,-0.13700000,0.00100000,0.98700000,-0.08000000,0.18000000,-0.16000000,-0.71557146,0.01265673,5.07764422,0.10000000,8.04000000,-0.00000000
510,0,-0.13600000,0.00600000,0.99400000,-0.01000000,-0.12000000,0.21000000,-0.71574169,0.01266424,5.07888841,0.10000000,8.04000000,-0.00000000
511,0,-0.13700000,0.00000000,0.99300000,-0.02000000,-0.05000000,0.24000000,-0.71591801,0.01266424,5.08016639,0.10000000,8.03000000,-0.00000000
512,0,-0.14300000,-0.00100000,0.99200000,0.20000000,0.15000000,-0.16000000,-0.71610017,0.01266297,5.08143007,0.10000000,8.04000000,-0.00000000
513,0,-0.14000000,0.00200000,0.99100000,0.08000000,0.11000000,-0.10000000,-0.72362641,0.01277049,5.13470510,0.10000000,8.04000000,-0.00000000
514,0,-0.13900000,0.00200000,0.99400000,-0.13000000,-0.05000000,0.06000000,-0.72380954,0.01277312,5.13601469,0.10000000,8.04000000,-0.01000000
515,0,-0.14000000,0.00300000,0.98900000,-0.02000000,0.04000000,-0.09000000,-0.72398732,0.01277693,5.13727054,0.10000000,8.04000000,-0.01000000
516,0,-0.13400000,0.00200000,0.99100000,-0.05000000,0.08000000,-0.26000000,-0.72415466,0.01277943,5.13850814,0.10000000,8.04000000,-0.01000000
517,0,-0.14400000,0.00400000,0.98900000,0.16000000,0.12000000,0.04000000,-0.72433824,0.01278453,5.13976894,0.10000000,8.04000000,-0.01000000
518,0,-0.13900000,-0.00000000,0.99200000,0.06000000,-0.14000000,0.00000000,-0.72451812,0.01278453,5.14105272,0.11000000,8.04000000,-0.00000000
519,0,-0.14700000,0.00500000,0.99000000,-0.10000000,-0.18000000,-0.05000000,-0.73250658,0.01305624,5.19485251,0.11000000,8.04000000,-0.01000000
520,0,-0.14500000,0.00400000,0.99000000,0.14000000,-0.09000000,0.08000000,-0.73269879,0.01306155,5.19616487,0.11000000,8.04000000,-0.01000000
521,0,-0.14100000,-0.00500000,0.98700000,-0.02000000,0.11000000,0.11000000,-0.73287800,0.01305519,5.19741935,0.11000000,8.04000000,-0.00000000
522,0,-0.14000000,0.00300000,0.99400000,0.24000000,0.09000000,-0.08000000,-0.73305337,0.01305895,5.19866449,0.11000000,8.04000000,-0.00000000
523,0,-0.14300000,0.00200000,0.98900000,0.09000000,-0.22000000,-0.02000000,-0.73323468,0.01306149,5.19991845,0.11000000,8.03000000,-0.00000000
524,0,-0.13900000,0.00600000,0.99000000,0.19000000,0.23000000,0.07000000,-0.73341414,0.01306923,5.20119658,0.11000000,8.03000000,-0.00000000
525,0,-0.14400000,0.00000000,0.99300000,0.15000000,0.15000000,-0.24000000,-0.74112359,0.01306923,5.25435966,0.11000000,8.04000000,-0.00000000
526,0,-0.13800000,0.00000000,0.99600000,-0.17000000,0.12000000,-0.17000000,-0.74130550,0.01306923,5.25567260,0.11000000,8.04000000,-0.01000000
527,0,-0.13500000,0.00600000,0.99300000,-0.04000000,0.22000000,-0.07000000,-0.74147873,0.01307693,5.25694679,0.11000000,8.03000000,-0.01000000
528,0,-0.13900000,0.00400000,0.98700000,0.09000000,-0.12000000,-0.01000000,-0.74165242,0.01308193,5.25818009,0.11000000,8.04000000,-0.01000000
529,0,-0.14000000,0.00400000,0.98600000,-0.04000000,0.04000000,0.05000000,-0.74185422,0.01308769,5.25960139,0.11000000,8.04000000,-0.01000000
530,0,-0.13900000,-0.00200000,0.99000000,0.07000000,-0.12000000,0.10000000,-0.74204060,0.01308501,5.26092885,0.11000000,8.04000000,-0.01000000
531,0,-0.14000000,0.00400000,0.98600000,-0.00000000,0.09000000,0.05000000,-0.74952716,0.01329891,5.31365557,0.11000000,8.04000000,-0.01000000
532,0,-0.14700000,0.00100000,0.98800000,0.00000000,0.08000000,-0.25000000,-0.74971021,0.01330016,5.31488589,0.11000000,8.04000000,-0.01000000
533,0,-0.14200000,0.00100000,0.99300000,0.06000000,0.05000000,0.18000000,-0.74988159,0.01330137,5.31608432,0.11000000,8.04000000,-0.01000000
534,0,-0.14200000,-0.00000000,0.99100000,0.00000000,0.15000000,-0.16000000,-0.75004900,0.01330137,5.31725269,0.11000000,8.04000000,-0.01000000
535,0,-0.14500000,0.00300000,0.99000000,-0.20000000,0.05000000,-0.17000000,-0.75022279,0.01330496,5.31843923,0.11000000,8.04000000,-0.01000000
536,0,-0.14100000,0.00800000,0.99000000,-0.04000000,-0.04000000,0.08000000,-0.75039188,0.01331456,5.31962649,0.11000000,8.04000000,-0.01000000
537,0,-0.14100000,-0.00100000,0.99300000,0.01000000,-0.28000000,-0.06000000,-0.75810621,0.01325984,5.37395508,0.11000000,8.04000000,-0.01000000
538,0,-0.14000000,-0.00100000,0.99000000,-0.08000000,-0.06000000,0.01000000,-0.75827892,0.01325861,5.37517633,0.11000000,8.04000000,-0.01000000
539,0,-0.14400000,0.00300000,0.99100000,0.14000000,0.09000000,-0.18000000,-0.75844938,0.01326216,5.37634942,0.11000000,8.04000000,-0.01000000
540,0,-0.13600000,0.00000000,0.99000000,0.05000000,-0.09000000,0.12000000,-0.75861302,0.01326216,5.37754069,0.11000000,8.04000000,-0.01000000
541,0,-0.13600000,0.00900000,0.99100000,0.19000000,0.16000000,0.22000000,-0.75877612,0.01327296,5.37872914,0.11000000,8.04000000,-0.01000000
542,0,-0.14100000,0.00700000,0.99600000,0.04000000,-0.05000000,0.03000000,-0.75894532,0.01328136,5.37992430,0.11000000,8.04000000,-0.01000000
543,0,-0.13900000,0.00700000,0.99200000,0.07000000,0.36000000,-0.07000000,-0.76644563,0.01365907,5.43345176,0.11000000,8.04000000,-0.01000000
544,0,-0.14000000,0.00200000,0.99200000,0.09000000,-0.09000000,0.13000000,-0.76662935,0.01366169,5.43475352,0.11000000,8.04000000,-0.01000000
545,0,-0.14100000,0.00100000,0.99100000,0.04000000,0.24000000,-0.06000000,-0.76689294,0.01366356,5.43660613,0.11000000,8.04000000,-0.01000000
546,0,-0.14100000,0.00400000,0.99300000,-0.01000000,0.13000000,-0.05000000,-0.76708056,0.01366889,5.43792743,0.11000000,8.04000000,-0.01000000
547,0,-0.14200000,0.00000000,0.98700000,0.12000000,0.24000000,-0.36000000,-0.76725972,0.01366889,5.43917274,0.11000000,8.04000000,-0.01000000
548,0,-0.14200000,0.00100000,0.98700000,0.11000000,-0.21000000,0.01000000,-0.76754211,0.01367087,5.44113554,0.11000000,8.04000000,-0.01000000
549,0,-0.13800000,0.00700000,0.99200000,-0.07000000,0.22000000,0.20000000,-0.77488105,0.01404314,5.49389079,0.11000000,8.04000000,-0.01000000
550,0,-0.14100000,0.00500000,0.99100000,0.20000000,-0.12000000,-0.05000000,-0.77505787,0.01404941,5.49513358,0.11000000,8.04000000,-0.01000000
551,0,-0.14200000,0.00300000,0.99200000,0.10000000,-0.01000000,-0.36000000,-0.77522796,0.01405300,5.49632181,0.11000000,8.04000000,-0.01000000
552,0,-0.14300000,0.00600000,0.99000000,-0.02000000,0.10000000,-0.17000000,-0.77540031,0.01406023,5.49751497,0.11000000,8.04000000,-0.01000000
553,0,-0.14000000,0.00200000,0.98800000,0.08000000,-0.15000000,-0.07000000,-0.77557064,0.01406267,5.49871702,0.11000000,8.04000000,-0.01000000
554,0,-0.13500000,-0.00300000,0.99000000,-0.05000000,0.20000000,-0.09000000,-0.77574135,0.01405887,5.49996894,0.11000000,8.04000000,-0.01000000
555,0,-0.14200000,-0.00100000,0.99300000,0.11000000,0.07000000,-0.08000000,-0.78336946,0.01400515,5.55331195,0.11000000,8.04000000,-0.01000000
556,0,-0.13900000,0.00100000,0.99300000,-0.10000000,-0.03000000,-0.05000000,-0.78354159,0.01400639,5.55454163,0.11000000,8.04000000,-0.01000000
557,0,-0.14100000,0.00400000,0.98800000,0.03000000,0.01000000,-0.14000000,-0.78371092,0.01401120,5.55572813,0.11000000,8.04000000,-0.01000000
558,0,-0.14000000,0.00300000,0.99200000,-0.17000000,0.21000000,0.01000000,-0.78387975,0.01401481,5.55692441,0.11000000,8.04000000,-0.01000000
559,0,-0.13900000,0.00400000,0.99200000,-0.08000000,0.08000000,0.06000000,-0.78404826,0.01401966,5.55812707,0.11000000,8.04000000,-0.01000000
560,0,-0.14300000,0.00200000,0.99100000,0.15000000,-0.06000000,-0.03000000,-0.78423264,0.01402224,5.55940483,0.11000000,8.04000000,-0.01000000
561,0,-0.13900000,0.00300000,0.98600000,-0.12000000,0.25000000,0.20000000,-0.79172163,0.01418388,5.61252814,0.11000000,8.04000000,-0.01000000
562,0,-0.13900000,-0.00200000,0.99200000,-0.04000000,0.24000000,-0.05000000,-0.79189542,0.01418138,5.61376840,0.11000000,8.04000000,-0.01000000
563,0,-0.14000000,0.00400000,0.98900000,0.07000000,-0.37000000,-0.04000000,-0.79206301,0.01418616,5.61495233,0.11000000,8.04000000,-0.01000000
564,0,-0.13900000,0.00300000,0.98800000,-0.17000000,0.19000000,-0.06000000,-0.79223076,0.01418978,5.61614473,0.11000000,8.04000000,-0.01000000
565,0,-0.14300000,0.00300000,0.99200000,0.04000000,0.11000000,-0.10000000,-0.79240372,0.01419341,5.61734455,0.11000000,8.04000000,-0.01000000
566,0,-0.13300000,0.00100000,0.98900000,0.00000000,0.07000000,0.01000000,-0.79257264,0.01419468,5.61860063,0.11000000,8.04000000,-0.01000000
567,0,-0.13800000,0.00400000,0.99000000,0.09000000,0.03000000,0.02000000,-0.80012902,0.01441371,5.67280947,0.11000000,8.04000000,-0.01000000
568,0,-0.14100000,-0.00000000,0.99000000,0.16000000,-0.18000000,-0.14000000,-0.80030219,0.01441371,5.67402528,0.11000000,8.04000000,-0.01000000
569,0,-0.13800000,0.00200000,0.99100000,-0.03000000,-0.17000000,-0.28000000,-0.80047058,0.01441615,5.67523453,0.11000000,8.04000000,-0.01000000
570,0,-0.13800000,0.00100000,0.98900000,-0.11000000,0.27000000,0.03000000,-0.80065124,0.01441746,5.67652928,0.11000000,8.04000000,-0.01000000
571,0,-0.13900000,0.00300000,0.99300000,0.14000000,0.12000000,-0.17000000,-0.80082085,0.01442112,5.67774097,0.11000000,8.04000000,-0.01000000
572,0,-0.13900000,0.00200000,0.98700000,0.31000000,0.05000000,0.15000000,-0.80098927,0.01442354,5.67893686,0.11000000,8.04000000,-0.01000000
573,0,-0.13700000,0.00100000,0.99100000,0.05000000,-0.04000000,0.09000000,-0.80836155,0.01447735,5.73226482,0.11000000,8.04000000,-0.01000000
574,0,-0.14300000,-0.00100000,0.99100000,0.06000000,0.01000000,-0.11000000,-0.80855176,0.01447602,5.73358298,0.11000000,8.04000000,-0.01000000
575,0,-0.13700000,0.00300000,0.98900000,-0.01000000,-0.02000000,-0.03000000,-0.80872834,0.01447989,5.73485770,0.11000000,8.04000000,-0.01000000
576,0,-0.13800000,0.00100000,0.99400000,0.10000000,0.05000000,0.03000000,-0.80890315,0.01448116,5.73611681,0.11000000,8.04000000,-0.01000000
577,0,-0.14000000,0.00100000,0.98700000,0.07000000,-0.07000000,-0.02000000,-0.80908042,0.01448242,5.73736659,0.11000000,8.04000000,-0.01000000
578,0,-0.13900000,0.00600000,0.99000000,-0.11000000,-0.03000000,0.18000000,-0.80938600,0.01449561,5.73954307,0.11000000,8.04000000,-0.01000000
579,0,-0.13900000,0.00300000,0.98800000,0.01000000,0.08000000,-0.12000000,-0.81669454,0.01465335,5.79149152,0.11000000,8.04000000,-0.01000000
580,0,-0.13800000,0.00100000,0.99200000,-0.21000000,0.36000000,-0.21000000,-0.81686787,0.01465461,5.79273746,0.11000000,8.04000000,-0.01000000
581,0,-0.14000000,0.00500000,0.98900000,0.05000000,-0.04000000,-0.05000000,-0.81703843,0.01466070,5.79394237,0.11000000,8.04000000,-0.01000000
582,0,-0.13500000,0.00400000,0.98900000,0.11000000,0.02000000,0.07000000,-0.81719959,0.01466548,5.79512301,0.11000000,8.04000000,-0.01000000
583,0,-0.13800000,0.00100000,0.99300000,0.08000000,0.13000000,-0.27000000,-0.81736463,0.01466667,5.79631054,0.11000000,8.04000000,-0.01000000
584,0,-0.13600000,0.00500000,0.99100000,0.12000000,-0.07000000,-0.04000000,-0.81753372,0.01467289,5.79754270,0.11000000,8.04000000,-0.01000000
585,0,-0.13800000,0.00100000,0.98700000,0.05000000,-0.05000000,0.12000000,-0.82509856,0.01472771,5.85164775,0.11000000,8.04000000,-0.01000000
586,0,-0.14200000,-0.00100000,0.99000000,-0.12000000,-0.25000000,0.15000000,-0.82527850,0.01472644,5.85290227,0.11000000,8.04000000,-0.01000000
587,0,-0.14300000,0.00100000,0.99000000,0.07000000,-0.25000000,0.18000000,-0.82547720,0.01472783,5.85427788,0.11000000,8.04000000,-0.01000000
588,0,-0.13500000,0.00100000,0.99000000,0.06000000,0.25000000,0.12000000,-0.82563945,0.01472903,5.85546773,0.11000000,8.04000000,-0.01000000
589,0,-0.13700000,0.00300000,0.99000000,-0.21000000,-0.12000000,-0.03000000,-0.82580395,0.01473263,5.85665640,0.11000000,8.04000000,-0.01000000
590,0,-0.14100000,0.00300000,0.99300000,-0.14000000,0.11000000,0.15000000,-0.82597697,0.01473631,5.85787495,0.11000000,8.03000000,-0.01000000
591,0,-0.14000000,0.00000000,0.99200000,-0.10000000,0.05000000,-0.14000000,-0.83349290,0.01473631,5.91113066,0.11000000,8.03000000,-0.01000000
592,0,-0.14200000,0.00100000,0.98900000,-0.01000000,-0.47000000,0.12000000,-0.83368293,0.01473765,5.91245418,0.11000000,8.03000000,-0.01000000
593,0,-0.14100000,0.00600000,0.99200000,-0.11000000,0.03000000,0.16000000,-0.83386218,0.01474528,5.91371526,0.11000000,8.03000000,-0.01000000
594,0,-0.13600000,0.00700000,0.98900000,-0.04000000,0.17000000,0.20000000,-0.83403575,0.01475421,5.91497747,0.11000000,8.03000000,-0.00000000
595,0,-0.13900000,-0.00100000,0.98900000,-0.14000000,0.00000000,0.11000000,-0.83421818,0.01475290,5.91627553,0.11000000,8.03000000,-0.00000000
596,0,-0.13900000,0.00100000,0.99100000,-0.04000000,-0.10000000,-0.12000000,-0.83441225,0.01475430,5.91765914,0.11000000,8.03000000,-0.01000000
597,0,-0.14000000,-0.00000000,0.99100000,0.18000000,-0.22000000,0.21000000,-0.84189587,0.01475430,5.97063245,0.11000000,8.03000000,-0.00000000
598,0,-0.14200000,0.00300000,0.98800000,-0.02000000,-0.13000000,0.27000000,-0.84208681,0.01475833,5.97196100,0.11000000,8.03000000,-0.00000000
599,0,-0.14100000,0.00300000,0.99300000,-0.02000000,0.09000000,-0.10000000,-0.84226539,0.01476213,5.97321861,0.11000000,8.03000000,-0.00000000
600,0,-0.13800000,0.00500000,0.99000000,-0.06000000,0.15000000,0.15000000,-0.84243871,0.01476841,5.97446204,0.10000000,8.03000000,-0.00000000
601,0,-0.13800000,0.00200000,0.99000000,-0.05000000,0.08000000,0.03000000,-0.84261266,0.01477093,5.97570996,0.10000000,8.03000000,-0.00000000
602,0,-0.14200000,-0.00200000,0.98600000,0.22000000,0.14000000,-0.11000000,-0.84280127,0.01476827,5.97701959,0.10000000,8.03000000,-0.00000000
603,0,-0.14400000,0.00400000,0.98900000,0.25000000,0.06000000,-0.23000000,-0.85063133,0.01498578,6.03079687,0.10000000,8.03000000,-0.00000000
604,0,-0.14300000,0.00400000,0.99400000,0.17000000,-0.04000000,0.12000000,-0.85082014,0.01499106,6.03210931,0.10000000,8.03000000,-0.00000000
605,0,-0.14400000,0.00300000,0.99100000,-0.27000000,-0.09000000,-0.11000000,-0.85100289,0.01499486,6.03336699,0.10000000,8.03000000,-0.00000000
606,0,-0.14000000,-0.00200000,0.99100000,-0.01000000,0.05000000,-0.06000000,-0.85117953,0.01499234,6.03461735,0.10000000,8.03000000,-0.00000000
607,0,-0.13600000,0.00500000,0.98900000,-0.11000000,-0.13000000,0.21000000,-0.85135168,0.01499867,6.03586919,0.10000000,8.03000000,-0.00000000
608,0,-0.13800000,0.00300000,0.98900000,0.23000000,-0.28000000,0.03000000,-0.85152826,0.01500251,6.03713471,0.10000000,8.03000000,-0.00000000
609,0,-0.14000000,0.00100000,0.99300000,-0.09000000,0.15000000,0.16000000,-0.85902336,0.01505605,6.09029637,0.10000000,8.03000000,-0.00000000
610,0,-0.14200000,0.00200000,0.99000000,-0.02000000,-0.28000000,0.09000000,-0.85920222,0.01505856,6.09154333,0.10000000,8.03000000,-0.00000000
611,0,-0.13900000,0.00200000,0.98900000,0.24000000,0.18000000,0.09000000,-0.85936871,0.01506096,6.09272797,0.11000000,8.03000000,-0.00000000
612,0,-0.13700000,0.00200000,0.98700000,-0.01000000,0.05000000,-0.23000000,-0.85953197,0.01506334,6.09390410,0.11000000,8.03000000,-0.00000000
613,0,-0.13900000,0.00300000,0.99100000,0.04000000,0.28000000,0.04000000,-0.85969962,0.01506696,6.09509940,0.11000000,8.03000000,-0.00000000
614,0,-0.14100000,-0.00100000,0.99100000,0.13000000,0.02000000,0.00000000,-0.85986767,0.01506577,6.09628053,0.11000000,8.03000000,-0.00000000
615,0,-0.14200000,-0.00200000,0.99100000,0.10000000,-0.28000000,0.09000000,-0.86794761,0.01495197,6.15266940,0.11000000,8.03000000,-0.00000000
616,0,-0.14000000,0.00100000,0.99100000,-0.15000000,-0.29000000,-0.06000000,-0.86812499,0.01495323,6.15392495,0.11000000,8.03000000,-0.00000000
617,0,-0.14000000,0.00600000,0.99100000,-0.26000000,-0.11000000,0.19000000,-0.86829288,0.01496043,6.15511341,0.11000000,8.03000000,-0.00000000
618,0,-0.14300000,0.00500000,0.99200000,-0.17000000,-0.10000000,0.03000000,-0.86846263,0.01496637,6.15629100,0.11000000,8.03000000,-0.00000000
619,0,-0.13400000,-0.00000000,0.99300000,0.14000000,0.04000000,0.16000000,-0.86862129,0.01496637,6.15746669,0.11000000,8.03000000,-0.00000000
620,0,-0.14200000,0.00300000,0.98600000,0.17000000,-0.02000000,-0.02000000,-0.86879510,0.01497004,6.15867360,0.11000000,8.03000000,-0.00000000
621,0,-0.13400000,0.00600000,0.98700000,-0.23000000,-0.10000000,-0.11000000,-0.86896213,0.01497752,6.15990385,0.11000000,8.03000000,-0.00000000
622,0,-0.14200000,-0.00100000,0.98800000,0.07000000,0.24000000,-0.25000000,-0.87674647,0.01492270,6.21406536,0.11000000,8.03000000,-0.00000000
623,0,-0.13100000,0.00300000,0.98600000,0.02000000,-0.07000000,-0.09000000,-0.87691713,0.01492661,6.21534984,0.11000000,8.03000000,-0.00000000
624,0,-0.14400000,0.00100000,0.99000000,-0.03000000,-0.15000000,0.01000000,-0.87708979,0.01492780,6.21653686,0.11000000,8.03000000,-0.00000000
625,0,-0.14200000,0.00500000,0.99000000,-0.14000000,-0.17000000,-0.02000000,-0.87726011,0.01493380,6.21772435,0.11000000,8.03000000,-0.00000000
626,0,-0.14200000,-0.00300000,0.98800000,-0.08000000,-0.06000000,-0.13000000,-0.87743081,0.01493020,6.21891203,0.11000000,8.03000000,-0.00000000
627,0,-0.14400000,0.00400000,0.98900000,-0.00000000,-0.05000000,0.06000000,-0.87761679,0.01493536,6.22018934,0.11000000,8.03000000,-0.00000000
628,0,-0.13700000,0.00300000,0.99100000,-0.03000000,-0.08000000,-0.46000000,-0.88498345,0.01509668,6.27347665,0.11000000,8.03000000,-0.00000000
629,0,-0.13300000,0.00100000,0.99400000,-0.19000000,0.30000000,-0.03000000,-0.88514796,0.01509791,6.27470615,0.11000000,8.03000000,-0.00000000
630,0,-0.14000000,0.00500000,0.98900000,-0.05000000,0.08000000,-0.19000000,-0.88531436,0.01510385,6.27588159,0.11000000,8.03000000,-0.00000000
631,0,-0.14000000,0.00200000,0.99100000,-0.01000000,0.22000000,0.03000000,-0.88548669,0.01510632,6.27710147,0.11000000,8.03000000,-0.00000000
632,0,-0.14000000,0.00200000,0.98800000,0.24000000,0.06000000,0.23000000,-0.88565609,0.01510874,6.27829692,0.11000000,8.03000000,-0.00000000
633,0,-0.14000000,0.00100000,0.98800000,0.03000000,0.25000000,-0.17000000,-0.88582538,0.01510995,6.27949167,0.11000000,8.03000000,-0.00000000
634,0,-0.14400000,0.00200000,0.99200000,0.03000000,-0.03000000,0.07000000,-0.89359701,0.01521789,6.33302953,0.11000000,8.03000000,-0.00000000
635,0,-0.14100000,0.00100000,0.98900000,0.08000000,0.03000000,-0.03000000,-0.89378321,0.01521921,6.33433561,0.11000000,8.03000000,-0.00000000
636,0,-0.14200000,-0.00200000,0.99200000,0.01000000,0.22000000,0.08000000,-0.89396420,0.01521666,6.33560000,0.11000000,8.03000000,-0.00000000
637,0,-0.14300000,0.00100000,0.98300000,-0.20000000,-0.02000000,-0.17000000,-0.89414599,0.01521793,6.33684963,0.11000000,8.03000000,-0.00000000
638,0,-0.14100000,0.00400000,0.98900000,0.21000000,0.02000000,-0.16000000,-0.89432329,0.01522296,6.33809322,0.11000000,8.03000000,-0.00000000
639,0,-0.13700000,0.00400000,0.99100000,-0.06000000,0.06000000,-0.09000000,-0.89449921,0.01522809,6.33936579,0.11000000,8.03000000,-0.00000000
640,0,-0.14300000,0.00100000,0.99400000,0.01000000,-0.07000000,0.00000000,-0.90228809,0.01528256,6.39350666,0.11000000,8.03000000,-0.00000000
641,0,-0.13800000,0.00000000,0.98700000,0.03000000,0.02000000,0.10000000,-0.90246908,0.01528256,6.39480115,0.11000000,8.03000000,-0.00000000
642,0,-0.14400000,0.00400000,0.98900000,-0.17000000,-0.23000000,-0.05000000,-0.90265736,0.01528779,6.39609425,0.11000000,8.03000000,-0.01000000
643,0,-0.14000000,-0.00000000,0.99000000,-0.02000000,-0.00000000,0.15000000,-0.90283877,0.01528779,6.39737710,0.11000000,8.03000000,-0.00000000
644,0,-0.14200000,0.00200000,0.99400000,0.29000000,-0.38000000,-0.13000000,-0.90302098,0.01529036,6.39865257,0.11000000,8.02000000,-0.00000000
645,0,-0.13800000,0.00200000,0.99000000,-0.05000000,0.06000000,-0.07000000,-0.90319875,0.01529293,6.39992786,0.11000000,8.02000000,-0.00000000
646,0,-0.14600000,0.00600000,0.99100000,-0.03000000,-0.18000000,0.00000000,-0.91100974,0.01561393,6.45294630,0.11000000,8.02000000,-0.00000000
647,0,-0.14300000,0.00400000,0.98800000,0.05000000,0.10000000,-0.22000000,-0.91119661,0.01561916,6.45423739,0.11000000,8.02000000,-0.00000000
648,0,-0.13900000,-0.00400000,0.99100000,-0.07000000,-0.12000000,0.04000000,-0.91137696,0.01561397,6.45552319,0.11000000,8.02000000,-0.00000000
649,0,-0.13800000,0.00000000,0.98900000,0.03000000,0.11000000,0.02000000,-0.91155338,0.01561397,6.45678753,0.11000000,8.02000000,-0.00000000
650,0,-0.13800000,0.00600000,0.99200000,0.25000000,0.06000000,0.03000000,-0.91172809,0.01562157,6.45804340,0.11000000,8.02000000,-0.00000000
651,0,-0.14100000,0.00100000,0.98600000,0.10000000,0.00000000,-0.07000000,-0.91190784,0.01562284,6.45930038,0.11000000,8.02000000,-0.00000000
652,0,-0.14400000,0.00500000,0.98700000,0.17000000,0.04000000,0.12000000,-0.91961677,0.01589051,6.51213870,0.11000000,8.02000000,-0.00000000
653,0,-0.14200000,0.00600000,0.98600000,0.08000000,-0.04000000,0.02000000,-0.91981391,0.01589884,6.51350758,0.11000000,8.02000000,-0.00000000
654,0,-0.13900000,0.00300000,0.98600000,0.12000000,-0.10000000,-0.19000000,-0.91999191,0.01590268,6.51477020,0.12000000,8.03000000,-0.00000000
655,0,-0.14200000,-0.00100000,0.98700000,0.17000000,0.03000000,0.12000000,-0.92017039,0.01590143,6.51601080,0.12000000,8.03000000,-0.00000000
656,0,-0.13800000,0.00200000,0.98900000,-0.16000000,-0.16000000,0.02000000,-0.92034375,0.01590394,6.51725321,0.12000000,8.03000000,-0.00000000
657,0,-0.13700000,0.00400000,0.99200000,-0.08000000,0.21000000,0.03000000,-0.92052183,0.01590914,6.51854267,0.12000000,8.03000000,-0.00000000
658,0,-0.14100000,0.00000000,0.98800000,0.17000000,-0.05000000,-0.03000000,-0.92819344,0.01590914,6.57229831,0.12000000,8.03000000,-0.00000000
659,0,-0.13700000,0.00400000,0.98500000,0.08000000,0.06000000,-0.09000000,-0.92837296,0.01591438,6.57358901,0.12000000,8.03000000,-0.00000000
660,0,-0.14000000,0.00100000,0.98800000,0.04000000,-0.03000000,-0.00000000,-0.92854883,0.01591564,6.57483016,0.12000000,8.03000000,-0.00000000
661,0,-0.13600000,0.00200000,0.99300000,-0.14000000,0.02000000,-0.08000000,-0.92872224,0.01591819,6.57609630,0.12000000,8.03000000,-0.00000000
662,0,-0.14100000,0.00300000,0.99000000,0.04000000,-0.04000000,0.11000000,-0.92890286,0.01592203,6.57736451,0.12000000,8.03000000,-0.00000000
663,0,-0.14300000,0.00100000,0.98500000,-0.06000000,0.02000000,-0.09000000,-0.92908564,0.01592331,6.57862350,0.12000000,8.03000000,-0.00000000
664,0,-0.14000000,0.00100000,0.99000000,0.21000000,0.36000000,-0.01000000,-0.93657920,0.01597683,6.63161369,0.12000000,8.03000000,-0.00000000
665,0,-0.13700000,0.00800000,0.99000000,0.07000000,0.03000000,0.09000000,-0.93675908,0.01598734,6.63291353,0.12000000,8.03000000,-0.00000000
666,0,-0.13800000,0.00600000,0.99000000,-0.01000000,0.51000000,0.06000000,-0.93693606,0.01599503,6.63418316,0.12000000,8.03000000,-0.00000000
667,0,-0.14100000,0.00800000,0.99000000,-0.08000000,-0.02000000,-0.02000000,-0.93711319,0.01600508,6.63542683,0.12000000,8.03000000,-0.00000000
668,0,-0.13800000,0.00100000,0.99000000,0.07000000,0.36000000,-0.06000000,-0.93728822,0.01600635,6.63668253,0.12000000,8.03000000,-0.00000000
669,0,-0.13400000,0.00100000,0.99000000,0.25000000,0.05000000,-0.01000000,-0.93746196,0.01600765,6.63796609,0.12000000,8.03000000,-0.00000000
670,0,-0.14000000,0.00600000,0.99200000,-0.06000000,0.07000000,-0.10000000,-0.94498186,0.01632993,6.69124994,0.12000000,8.03000000,-0.00000000
671,0,-0.13900000,0.00300000,0.98700000,-0.19000000,-0.04000000,-0.01000000,-0.94517072,0.01633401,6.69259102,0.12000000,8.03000000,-0.00000000
672,0,-0.13900000,0.00200000,0.99000000,0.11000000,-0.12000000,-0.01000000,-0.94534713,0.01633654,6.69384743,0.12000000,8.03000000,-0.00000000
673,0,-0.13800000,0.00100000,0.99400000,-0.01000000,0.25000000,-0.03000000,-0.94551374,0.01633775,6.69504754,0.12000000,8.03000000,-0.00000000
674,0,-0.13600000,0.00300000,0.99100000,0.15000000,0.26000000,0.19000000,-0.94567703,0.01634135,6.69623741,0.12000000,8.03000000,-0.00000000
675,0,-0.13800000,-0.00000000,0.99600000,0.23000000,0.06000000,0.32000000,-0.94584575,0.01634135,6.69745513,0.12000000,8.03000000,-0.00000000
676,0,-0.13600000,0.00500000,0.98900000,0.15000000,-0.00000000,-0.05000000,-0.95325248,0.01661366,6.75131730,0.12000000,8.03000000,-0.00000000
677,0,-0.14000000,0.00300000,0.99100000,-0.04000000,0.14000000,-0.08000000,-0.95342769,0.01661741,6.75255749,0.12000000,8.03000000,-0.00000000
678,0,-0.13900000,0.00300000,0.99200000,-0.17000000,-0.17000000,0.21000000,-0.95361602,0.01662148,6.75390159,0.12000000,8.03000000,-0.00000000
679,0,-0.13500000,0.00400000,0.99300000,0.03000000,-0.14000000,-0.05000000,-0.95379743,0.01662685,6.75523591,0.12000000,8.03000000,-0.00000000
680,0,-0.14200000,-0.00500000,0.99000000,0.07000000,-0.16000000,-0.02000000,-0.95397246,0.01662069,6.75645621,0.12000000,8.03000000,-0.00000000
681,0,-0.13600000,0.00300000,0.99400000,0.18000000,0.11000000,-0.31000000,-0.95413666,0.01662431,6.75765631,0.12000000,8.03000000,-0.00000000
682,0,-0.13900000,-0.00000000,0.98600000,0.19000000,-0.00000000,-0.21000000,-0.96158293,0.01662431,6.81047660,0.13000000,8.03000000,-0.00000000
683,0,-0.13800000,0.00000000,0.98800000,0.08000000,-0.06000000,0.09000000,-0.96175566,0.01662431,6.81171328,0.13000000,8.03000000,-0.00000000
684,0,-0.13600000,0.00000000,0.99300000,-0.02000000,-0.09000000,-0.08000000,-0.96191830,0.01662431,6.81290081,0.13000000,8.03000000,-0.00000000
685,0,-0.13800000,0.00200000,0.98900000,-0.18000000,-0.04000000,0.20000000,-0.96208370,0.01662671,6.81408616,0.12000000,8.03000000,-0.00000000
686,0,-0.14400000,0.00100000,0.99000000,0.00000000,-0.16000000,-0.08000000,-0.96225588,0.01662790,6.81526987,0.12000000,8.03000000,-0.00000000
687,0,-0.14200000,-0.00100000,0.99300000,-0.23000000,0.10000000,0.01000000,-0.96242536,0.01662671,6.81645504,0.12000000,8.03000000,-0.00000000
688,0,-0.13600000,0.00400000,0.99100000,-0.15000000,0.16000000,-0.09000000,-0.96977317,0.01684282,6.86999682,0.12000000,8.03000000,-0.00000000
689,0,-0.13800000,0.00300000,0.99300000,-0.09000000,0.22000000,-0.20000000,-0.96994518,0.01684656,6.87123455,0.12000000,8.03000000,-0.00000000
690,0,-0.13900000,0.00300000,0.98900000,0.05000000,0.02000000,0.14000000,-0.97011512,0.01685023,6.87244371,0.12000000,8.03000000,-0.00000000
691,0,-0.14000000,-0.00200000,0.99100000,0.15000000,0.05000000,-0.04000000,-0.97028522,0.01684780,6.87364776,0.12000000,8.03000000,-0.00000000
692,0,-0.13300000,0.00500000,0.99200000,-0.07000000,-0.00000000,0.07000000,-0.97044821,0.01685393,6.87486343,0.12000000,8.03000000,-0.00000000
693,0,-0.13900000,0.00500000,0.99100000,-0.16000000,-0.24000000,-0.04000000,-0.97061656,0.01685998,6.87606369,0.12000000,8.03000000,-0.00000000
694,0,-0.14400000,0.00000000,0.99000000,0.18000000,0.16000000,0.04000000,-0.97849362,0.01685998,6.93021848,0.12000000,8.03000000,-0.00000000
695,0,-0.14100000,-0.00300000,0.99000000,-0.10000000,-0.00000000,-0.12000000,-0.97867613,0.01685610,6.93149991,0.12000000,8.03000000,-0.00000000
696,0,-0.13700000,0.00600000,0.98900000,-0.24000000,-0.16000000,0.03000000,-0.97884702,0.01686358,6.93273359,0.12000000,8.03000000,-0.00000000
697,0,-0.14000000,0.00000000,0.98800000,0.17000000,0.01000000,0.21000000,-0.97902413,0.01686358,6.93398346,0.12000000,8.03000000,-0.00000000
698,0,-0.13700000,0.00200000,0.99000000,0.07000000,-0.04000000,-0.13000000,-0.97920185,0.01686618,6.93526773,0.12000000,8.03000000,-0.00000000
699,0,-0.13900000,-0.00300000,0.99200000,-0.10000000,-0.11000000,0.07000000,-0.97938190,0.01686229,6.93655269,0.12000000,8.03000000,-0.00000000
700,0,-0.14200000,0.00000000,0.99300000,0.12000000,-0.08000000,-0.03000000,-0.98729199,0.01686229,6.99186759,0.12000000,8.03000000,-0.00000000
701,0,-0.13900000,0.00500000,0.99200000,0.07000000,0.07000000,0.13000000,-0.98743939,0.01686760,6.99291959,0.12000000,8.03000000,-0.00000000
702,0,-0.14400000,0.00400000,0.98800000,-0.05000000,0.10000000,-0.08000000,-0.98761106,0.01687236,6.99409738,0.12000000,8.03000000,-0.00000000
703,0,-0.14000000,0.00100000,0.98700000,-0.16000000,-0.19000000,-0.15000000,-0.98818684,0.01687648,6.99815663,0.11000000,8.03000000,-0.00000000
704,0,-0.14200000,0.00600000,0.99100000,0.16000000,-0.09000000,0.03000000,-0.98832801,0.01688244,6.99914189,0.12000000,8.03000000,-0.00000000
705,0,-0.13900000,0.00200000,0.99100000,0.15000000,-0.07000000,0.02000000,-0.98845905,0.01688433,7.00007611,0.12000000,8.03000000,-0.00000000
706,0,-0.14400000,0.00000000,0.99100000,0.12000000,-0.16000000,0.12000000,-0.99625086,0.01688433,7.05369894,0.12000000,8.03000000,-0.00000000
707,0,-0.14200000,-0.00100000,0.99200000,0.11000000,0.36000000,0.20000000,-0.99739304,0.01687628,7.06167812,0.12000000,8.03000000,-0.00000000
708,0,-0.13300000,0.00100000,0.99200000,-0.02000000,0.10000000,0.09000000,-0.99764653,0.01687819,7.06356879,0.12000000,8.03000000,-0.00000000
709,0,-0.14400000,0.00700000,0.98700000,0.00000000,-0.00000000,-0.27000000,-0.99780594,0.01688594,7.06466137,0.12000000,8.03000000,-0.00000000
710,0,-0.14200000,-0.00200000,0.99400000,0.04000000,-0.18000000,-0.18000000,-0.99794820,0.01688394,7.06565720,0.12000000,8.03000000,-0.00000000
711,0,-0.13600000,0.00300000,0.98900000,0.28000000,-0.29000000,-0.21000000,-0.99809644,0.01688721,7.06673526,0.12000000,8.03000000,-0.00000000
712,0,-0.14100000,0.00100000,0.99400000,-0.25000000,-0.01000000,-0.08000000,-1.00426950,0.01693099,7.11025314,0.12000000,8.03000000,-0.00000000
713,0,-0.13500000,0.00500000,0.99400000,-0.24000000,0.03000000,0.03000000,-1.00440768,0.01693610,7.11127053,0.12000000,8.03000000,-0.00000000
714,0,-0.14000000,0.00500000,0.98800000,0.09000000,-0.07000000,0.13000000,-1.00453665,0.01694071,7.11218072,0.12000000,8.03000000,-0.00000000
715,0,-0.14100000,0.00300000,0.98600000,-0.03000000,0.08000000,-0.18000000,-1.00467142,0.01694358,7.11312316,0.12000000,8.03000000,-0.00000000
716,0,-0.14300000,0.00300000,0.99200000,-0.17000000,0.06000000,-0.08000000,-1.00481118,0.01694651,7.11409262,0.12000000,8.03000000,-0.00000000
717,0,-0.13900000,0.00300000,0.98500000,0.12000000,-0.07000000,0.03000000,-1.00493966,0.01694928,7.11500311,0.12000000,8.03000000,-0.00000000
718,0,-0.14300000,0.00400000,0.99200000,-0.10000000,-0.06000000,-0.08000000,-1.01272823,0.01716714,7.16903291,0.12000000,8.03000000,-0.00000000
719,0,-0.13800000,0.00000000,0.98600000,0.17000000,-0.33000000,-0.05000000,-1.01285786,0.01716714,7.16995913,0.12000000,8.03000000,-0.01000000
720,0,-0.13900000,-0.00100000,0.99100000,0.01000000,-0.19000000,-0.14000000,-1.01298267,0.01716625,7.17084894,0.12000000,8.03000000,-0.00000000
721,0,-0.14200000,0.00100000,0.99100000,-0.25000000,0.01000000,0.03000000,-1.01310983,0.01716714,7.17173638,0.11000000,8.03000000,-0.01000000
722,0,-0.13700000,-0.00000000,0.98900000,-0.17000000,0.03000000,-0.02000000,-1.01323398,0.01716714,7.17263264,0.11000000,8.03000000,-0.01000000
723,0,-0.14400000,-0.00300000,0.99400000,0.01000000,0.01000000,-0.14000000,-1.01336355,0.01716444,7.17352703,0.11000000,8.03000000,-0.00000000
724,0,-0.13800000,0.00100000,0.99100000,0.07000000,-0.02000000,-0.02000000,-1.02105079,0.01722015,7.22873028,0.11000000,8.03000000,-0.00000000
725,0,-0.14300000,-0.00100000,0.99300000,0.09000000,0.16000000,-0.02000000,-1.02118505,0.01721921,7.22966260,0.11000000,8.03000000,-0.00000000
726,0,-0.14100000,0.00300000,0.99100000,-0.01000000,0.21000000,-0.16000000,-1.02131037,0.01722187,7.23054343,0.11000000,8.03000000,-0.00000000
727,0,-0.13800000,0.00100000,0.99100000,-0.08000000,-0.13000000,0.33000000,-1.02143458,0.01722277,7.23143536,0.11000000,8.03000000,-0.00000000
728,0,-0.14000000,0.00200000,0.99000000,-0.12000000,-0.07000000,-0.07000000,-1.02156018,0.01722457,7.23232355,0.11000000,8.03000000,-0.00000000
729,0,-0.13800000,0.00200000,0.98900000,0.09000000,-0.18000000,-0.20000000,-1.02168379,0.01722636,7.23320944,0.11000000,8.03000000,-0.00000000
730,0,-0.13500000,-0.00300000,0.99200000,0.13000000,-0.07000000,-0.16000000,-1.02926504,0.01705789,7.28891753,0.11000000,8.03000000,-0.01000000
731,0,-0.14300000,-0.00100000,0.99000000,0.04000000,0.17000000,-0.21000000,-1.02939845,0.01705696,7.28984113,0.11000000,8.03000000,-0.01000000
732,0,-0.13600000,0.00200000,0.99000000,0.04000000,-0.12000000,-0.03000000,-1.02951907,0.01705873,7.29071918,0.11000000,8.03000000,-0.01000000
733,0,-0.14200000,0.00200000,0.99400000,-0.08000000,-0.01000000,0.12000000,-1.02964843,0.01706055,7.29162471,0.11000000,8.03000000,-0.01000000
734,0,-0.14200000,0.00100000,0.98600000,0.01000000,-0.03000000,0.08000000,-1.02977677,0.01706146,7.29251590,0.11000000,8.03000000,-0.01000000
735,0,-0.14500000,0.00200000,0.98900000,0.12000000,0.15000000,-0.08000000,-1.02990596,0.01706324,7.29339707,0.11000000,8.03000000,-0.01000000
736,0,-0.14100000,0.00300000,0.99000000,-0.00000000,0.04000000,0.24000000,-1.03772199,0.01722954,7.34827554,0.11000000,8.03000000,-0.01000000
737,0,-0.13700000,0.00400000,0.98800000,-0.03000000,-0.02000000,0.13000000,-1.03784996,0.01723327,7.34919846,0.11000000,8.03000000,-0.01000000
738,0,-0.14100000,-0.00000000,0.98800000,0.02000000,-0.08000000,-0.02000000,-1.03797509,0.01723327,7.35007520,0.11000000,8.03000000,-0.01000000
739,0,-0.13800000,0.00200000,0.98900000,0.18000000,-0.28000000,0.19000000,-1.03809955,0.01723508,7.35096722,0.11000000,8.02000000,-0.00000000
740,0,-0.15100000,0.00000000,0.98900000,-0.18000000,0.12000000,0.15000000,-1.03823578,0.01723508,7.35185947,0.11000000,8.03000000,-0.00000000
741,0,-0.14100000,-0.00200000,0.99100000,0.20000000,0.04000000,0.01000000,-1.03836131,0.01723330,7.35274171,0.11000000,8.02000000,-0.00000000
742,0,-0.14000000,0.00700000,0.99100000,-0.05000000,-0.01000000,-0.03000000,-1.04656744,0.01764360,7.41082938,0.11000000,8.03000000,-0.00000000
743,0,-0.14000000,-0.00100000,0.99300000,0.25000000,0.18000000,0.09000000,-1.04670055,0.01764265,7.41177354,0.10000000,8.03000000,-0.01000000
744,0,-0.13500000,0.00100000,0.98800000,-0.10000000,-0.02000000,0.18000000,-1.04682067,0.01764354,7.41265264,0.10000000,8.03000000,-0.00000000
745,0,-0.13800000,0.00400000,0.98900000,0.02000000,-0.02000000,-0.00000000,-1.04694293,0.01764708,7.41352886,0.11000000,8.03000000,-0.00000000
746,0,-0.14000000,0.00200000,0.99000000,-0.05000000,0.17000000,0.06000000,-1.04707034,0.01764890,7.41442980,0.11000000,8.03000000,-0.00000000
747,0,-0.13600000,0.00700000,0.99000000,-0.05000000,0.22000000,-0.03000000,-1.04719346,0.01765524,7.41532603,0.11000000,8.03000000,-0.00000000
748,0,-0.13800000,-0.00100000,0.98900000,0.11000000,-0.03000000,-0.14000000,-1.04731783,0.01765434,7.41621733,0.11000000,8.03000000,-0.00000000
749,0,-0.14000000,0.00200000,0.99200000,-0.14000000,0.10000000,-0.00000000,-1.05518703,0.01776676,7.47197628,0.11000000,8.03000000,-0.00000000
750,0,-0.13600000,0.00200000,0.99100000,-0.17000000,0.16000000,-0.00000000,-1.05531342,0.01776862,7.47289727,0.11000000,8.03000000,-0.00000000
751,0,-0.13400000,0.00400000,0.98800000,-0.16000000,-0.15000000,-0.13000000,-1.05543425,0.01777222,7.47378815,0.11000000,8.03000000,-0.01000000
752,0,-0.14500000,-0.00100000,0.99400000,0.04000000,0.12000000,-0.18000000,-1.05556510,0.01777132,7.47468515,0.10000000,8.03000000,-0.01000000
753,0,-0.13400000,0.00100000,0.98800000,-0.03000000,0.36000000,-0.08000000,-1.05568401,0.01777221,7.47556189,0.10000000,8.03000000,-0.01000000
754,0,-0.14100000,0.00700000,0.99100000,0.03000000,0.16000000,0.09000000,-1.05580944,0.01777843,7.47644343,0.10000000,8.03000000,-0.01000000
755,0,-0.13800000,0.00500000,0.99400000,0.08000000,0.20000000,-0.02000000,-1.06346430,0.01805578,7.53158060,0.10000000,8.03000000,-0.01000000
756,0,-0.14200000,0.00100000,0.99200000,-0.05000000,-0.05000000,0.36000000,-1.06359786,0.01805673,7.53251363,0.11000000,8.03000000,-0.00000000
757,0,-0.13500000,-0.00700000,0.98800000,-0.11000000,-0.28000000,0.11000000,-1.06372348,0.01805021,7.53343301,0.10000000,8.03000000,-0.00000000
758,0,-0.14300000,-0.00100000,0.98800000,0.02000000,0.20000000,0.10000000,-1.06385583,0.01804929,7.53434745,0.10000000,8.03000000,-0.00000000
759,0,-0.13800000,0.00200000,0.99200000,0.07000000,-0.16000000,-0.09000000,-1.06398000,0.01805109,7.53524004,0.10000000,8.03000000,-0.00000000
760,0,-0.14000000,0.00300000,0.99200000,0.16000000,0.15000000,0.06000000,-1.06410497,0.01805376,7.53612554,0.11000000,8.03000000,-0.01000000
761,0,-0.13900000,-0.00000000,0.98800000,0.05000000,0.08000000,-0.02000000,-1.07182912,0.01805376,7.59102812,0.10000000,8.03000000,-0.01000000
762,0,-0.13900000,0.00700000,0.98500000,-0.04000000,-0.06000000,0.03000000,-1.07195969,0.01806034,7.59195339,0.11000000,8.03000000,-0.01000000
763,0,-0.14000000,0.00200000,0.98900000,0.01000000,-0.09000000,-0.09000000,-1.07208580,0.01806214,7.59284423,0.11000000,8.03000000,-0.01000000
764,0,-0.14300000,0.00600000,0.99400000,0.08000000,-0.16000000,-0.06000000,-1.07221263,0.01806746,7.59372583,0.11000000,8.02000000,-0.01000000
765,0,-0.14600000,0.00300000,0.98800000,0.11000000,0.11000000,-0.09000000,-1.07234205,0.01807012,7.59460163,0.11000000,8.03000000,-0.00000000
766,0,-0.13700000,0.00100000,0.99300000,0.03000000,0.07000000,0.04000000,-1.07246375,0.01807101,7.59548376,0.11000000,8.03000000,-0.00000000
767,0,-0.13500000,0.00400000,0.99100000,-0.05000000,0.02000000,0.12000000,-1.08005455,0.01829592,7.65120587,0.11000000,8.03000000,-0.00000000
768,0,-0.14300000,0.00200000,0.98600000,-0.05000000,-0.02000000,-0.24000000,-1.08019304,0.01829786,7.65216077,0.11000000,8.03000000,-0.00000000
769,0,-0.14400000,-0.00500000,0.99200000,-0.08000000,0.08000000,0.24000000,-1.08032296,0.01829335,7.65305572,0.11000000,8.03000000,-0.00000000
770,0,-0.13500000,0.00200000,0.99100000,-0.03000000,-0.14000000,0.02000000,-1.08044243,0.01829512,7.65393277,0.11000000,8.03000000,-0.00000000
771,0,-0.14200000,0.00300000,0.98800000,-0.11000000,-0.29000000,-0.19000000,-1.08056871,0.01829779,7.65481140,0.11000000,8.03000000,-0.00000000
772,0,-0.13700000,0.00600000,0.99300000,-0.03000000,0.14000000,0.09000000,-1.08069195,0.01830318,7.65570465,0.11000000,8.03000000,-0.00000000
773,0,-0.14300000,-0.00100000,0.99000000,0.13000000,-0.01000000,0.14000000,-1.08861922,0.01824775,7.71058572,0.11000000,8.03000000,-0.00000000
774,0,-0.14000000,0.00800000,0.99100000,0.14000000,0.08000000,-0.13000000,-1.08875250,0.01825536,7.71152916,0.11000000,8.03000000,-0.00000000
775,0,-0.14000000,-0.00100000,0.99100000,-0.26000000,0.03000000,0.07000000,-1.08887837,0.01825447,7.71242014,0.11000000,8.03000000,-0.00000000
776,0,-0.14400000,0.00100000,0.98700000,0.02000000,-0.15000000,0.15000000,-1.08900626,0.01825535,7.71329671,0.11000000,8.03000000,-0.00000000
777,0,-0.14000000,0.00500000,0.99100000,0.13000000,0.09000000,0.15000000,-1.08913056,0.01825979,7.71417659,0.11000000,8.03000000,-0.00000000
778,0,-0.13600000,0.00300000,0.99200000,-0.12000000,0.04000000,0.06000000,-1.08925348,0.01826250,7.71507320,0.11000000,8.03000000,-0.00000000
779,0,-0.14100000,0.00400000,0.99100000,0.18000000,-0.02000000,0.02000000,-1.09709872,0.01848506,7.77021242,0.11000000,8.03000000,-0.00000000
780,0,-0.14300000,0.00200000,0.99100000,-0.15000000,-0.21000000,-0.10000000,-1.09723445,0.01848696,7.77115302,0.11000000,8.03000000,-0.00000000
781,0,-0.14100000,-0.00200000,0.98600000,0.05000000,-0.02000000,0.04000000,-1.09736054,0.01848517,7.77203481,0.11000000,8.03000000,-0.00000000
782,0,-0.14100000,-0.00000000,0.99200000,0.08000000,0.19000000,-0.14000000,-1.09748543,0.01848517,7.77291345,0.11000000,8.03000000,-0.00000000
783,0,-0.14200000,0.00100000,0.98900000,0.04000000,-0.19000000,-0.21000000,-1.09761554,0.01848609,7.77381961,0.11000000,8.03000000,-0.00000000
784,0,-0.14200000,0.00300000,0.99200000,-0.13000000,0.10000000,-0.09000000,-1.09774595,0.01848885,7.77473066,0.11000000,8.03000000,-0.01000000
785,0,-0.13600000,-0.00100000,0.99000000,0.11000000,-0.15000000,0.02000000,-1.10538954,0.01843264,7.83037152,0.11000000,8.03000000,-0.00000000
786,0,-0.13900000,0.00300000,0.99200000,0.21000000,0.16000000,-0.22000000,-1.10552233,0.01843551,7.83131922,0.11000000,8.03000000,-0.01000000
787,0,-0.13900000,-0.00300000,0.98900000,0.25000000,0.06000000,-0.06000000,-1.10564797,0.01843280,7.83221312,0.11000000,8.03000000,-0.01000000
788,0,-0.13900000,0.00100000,0.99300000,0.10000000,0.15000000,-0.06000000,-1.10577307,0.01843370,7.83310685,0.11000000,8.03000000,-0.01000000
789,0,-0.13900000,0.00300000,0.99000000,0.01000000,0.08000000,0.08000000,-1.10589854,0.01843640,7.83400047,0.11000000,8.03000000,-0.01000000
790,0,-0.14200000,0.00200000,0.99200000,0.03000000,-0.05000000,0.02000000,-1.10602689,0.01843821,7.83489709,0.11000000,8.03000000,-0.01000000
791,0,-0.13800000,0.00500000,0.99300000,0.07000000,-0.12000000,-0.03000000,-1.11367141,0.01871519,7.88990445,0.11000000,8.03000000,-0.00000000
792,0,-0.13600000,0.00300000,0.99300000,0.29000000,0.07000000,-0.23000000,-1.11380157,0.01871806,7.89085476,0.11000000,8.03000000,-0.01000000
793,0,-0.13900000,-0.00200000,0.99600000,-0.00000000,-0.31000000,0.19000000,-1.11392767,0.01871624,7.89175832,0.11000000,8.02000000,-0.01000000
794,0,-0.13800000,0.00100000,0.99500000,0.11000000,-0.11000000,0.15000000,-1.11405378,0.01871716,7.89266761,0.11000000,8.02000000,-0.00000000
795,0,-0.13700000,0.00500000,0.98900000,0.23000000,0.08000000,0.10000000,-1.11417754,0.01872168,7.89356104,0.11000000,8.02000000,-0.01000000
796,0,-0.14100000,0.00700000,0.99100000,-0.14000000,0.39000000,0.14000000,-1.11430502,0.01872800,7.89445698,0.11000000,8.02000000,-0.00000000
797,0,-0.14300000,-0.00100000,0.99000000,0.02000000,-0.02000000,-0.06000000,-1.12238202,0.01867152,7.95037471,0.11000000,8.03000000,-0.01000000
798,0,-0.14000000,-0.00000000,0.99000000,0.17000000,-0.13000000,0.10000000,-1.12252208,0.01867152,7.95136511,0.11000000,8.03000000,-0.01000000
799,0,-0.13900000,0.00200000,0.99100000,-0.30000000,-0.08000000,-0.09000000,-1.12265103,0.01867338,7.95228445,0.11000000,8.03000000,-0.01000000
800,0,-0.14300000,0.00600000,0.99000000,0.06000000,-0.22000000,0.05000000,-1.12278604,0.01867904,7.95321914,0.11000000,8.03000000,-0.00000000
801,0,-0.14500000,0.00200000,0.99100000,0.35000000,-0.16000000,0.13000000,-1.12292256,0.01868092,7.95415219,0.12000000,8.03000000,-0.00000000
802,0,-0.13900000,-0.00400000,0.99200000,-0.06000000,0.21000000,0.09000000,-1.12305104,0.01867723,7.95506914,0.12000000,8.03000000,-0.00000000
803,0,-0.14100000,0.00200000,0.99200000,-0.09000000,0.06000000,0.05000000,-1.13082313,0.01878747,8.00974935,0.12000000,8.03000000,-0.00000000
804,0,-0.14100000,-0.00100000,0.99000000,0.05000000,-0.24000000,-0.15000000,-1.13095565,0.01878653,8.01067980,0.11000000,8.03000000,-0.00000000
805,0,-0.14100000,0.00500000,0.98900000,-0.12000000,-0.00000000,-0.17000000,-1.13108158,0.01879100,8.01156309,0.12000000,8.03000000,-0.00000000
806,0,-0.13900000,-0.00100000,0.99300000,0.05000000,-0.27000000,-0.03000000,-1.13120850,0.01879008,8.01246984,0.12000000,8.03000000,-0.00000000
807,0,-0.14000000,0.00200000,0.99600000,-0.07000000,-0.17000000,0.03000000,-1.13133451,0.01879188,8.01336627,0.11000000,8.03000000,-0.00000000
808,0,-0.14200000,0.00600000,0.99200000,0.22000000,-0.04000000,0.11000000,-1.13146299,0.01879731,8.01426383,0.11000000,8.03000000,-0.00000000
809,0,-0.14200000,0.00400000,0.99000000,-0.06000000,-0.04000000,0.11000000,-1.13934352,0.01901930,8.06920556,0.11000000,8.03000000,-0.00000000
810,0,-0.13700000,0.00400000,0.98800000,-0.06000000,0.06000000,0.18000000,-1.13947368,0.01902310,8.07014426,0.11000000,8.03000000,-0.00000000
811,0,-0.13600000,0.00400000,0.98800000,-0.06000000,0.14000000,0.08000000,-1.13959712,0.01902673,8.07104102,0.12000000,8.03000000,-0.00000000
812,0,-0.14000000,0.00000000,0.99300000,-0.20000000,-0.04000000,0.09000000,-1.13972453,0.01902673,8.07194470,0.12000000,8.03000000,-0.00000000
813,0,-0.13700000,0.00400000,0.98900000,-0.10000000,0.05000000,-0.05000000,-1.13984868,0.01903035,8.07284096,0.12000000,8.03000000,-0.00000000
814,0,-0.13700000,0.00200000,0.98900000,0.15000000,0.01000000,-0.01000000,-1.13997091,0.01903214,8.07372331,0.12000000,8.03000000,-0.00000000
815,0,-0.13800000,-0.00100000,0.99300000,-0.02000000,0.06000000,-0.08000000,-1.14775093,0.01897576,8.12970560,0.12000000,8.03000000,-0.00000000
816,0,-0.14700000,0.00100000,0.98700000,-0.12000000,-0.17000000,-0.23000000,-1.14788884,0.01897670,8.13063158,0.12000000,8.03000000,-0.00000000
817,0,-0.13500000,0.00500000,0.99000000,0.02000000,0.18000000,0.04000000,-1.14801060,0.01898121,8.13152450,0.12000000,8.03000000,-0.00000000
818,0,-0.13800000,0.00100000,0.98700000,0.07000000,0.05000000,-0.17000000,-1.14813783,0.01898213,8.13243448,0.11000000,8.03000000,-0.00000000
819,0,-0.13500000,0.00400000,0.99200000,-0.09000000,0.14000000,0.12000000,-1.14825917,0.01898573,8.13332613,0.12000000,8.03000000,-0.00000000
820,0,-0.14500000,0.00400000,0.98400000,0.01000000,0.30000000,-0.15000000,-1.14838923,0.01898931,8.13420871,0.12000000,8.03000000,-0.00000000
821,0,-0.14800000,0.00300000,0.99100000,-0.29000000,-0.14000000,-0.02000000,-1.15659035,0.01915555,8.18912300,0.12000000,8.03000000,-0.00000000
822,0,-0.13200000,0.00500000,0.99100000,0.10000000,-0.10000000,-0.13000000,-1.15671901,0.01916043,8.19008888,0.12000000,8.03000000,-0.00000000
823,0,-0.14100000,0.00200000,0.99400000,-0.13000000,-0.18000000,-0.00000000,-1.15684981,0.01916228,8.19101100,0.12000000,8.03000000,-0.00000000
824,0,-0.13900000,0.00200000,0.99000000,-0.09000000,0.09000000,0.09000000,-1.15697598,0.01916410,8.19190959,0.12000000,8.03000000,-0.00000000
825,0,-0.14300000,0.00200000,0.99000000,-0.15000000,-0.18000000,-0.12000000,-1.15710393,0.01916589,8.19279542,0.12000000,8.03000000,-0.00000000
826,0,-0.14000000,0.00100000,0.99100000,0.08000000,-0.22000000,0.08000000,-1.15722950,0.01916678,8.19368428,0.12000000,8.02000000,-0.00000000
827,0,-0.13700000,0.00200000,0.98800000,0.14000000,0.41000000,-0.00000000,-1.16499028,0.01928008,8.24965252,0.12000000,8.02000000,-0.00000000
828,0,-0.14500000,-0.00000000,0.98600000,-0.17000000,0.15000000,0.11000000,-1.16513226,0.01928008,8.25061800,0.12000000,8.03000000,-0.00000000
829,0,-0.13700000,0.00300000,0.99200000,0.09000000,-0.02000000,0.08000000,-1.16525557,0.01928278,8.25151083,0.12000000,8.02000000,-0.00000000
830,0,-0.14100000,0.00200000,0.98900000,-0.00000000,-0.20000000,0.01000000,-1.16538207,0.01928457,8.25239813,0.12000000,8.02000000,-0.00000000
831,0,-0.14400000,0.00000000,0.99000000,-0.00000000,-0.30000000,0.02000000,-1.16551074,0.01928457,8.25328278,0.12000000,8.02000000,-0.00000000
832,0,-0.14200000,0.00400000,0.99000000,-0.07000000,-0.10000000,-0.00000000,-1.16563882,0.01928818,8.25417570,0.12000000,8.02000000,-0.00000000
833,0,-0.14100000,0.00000000,0.99100000,0.38000000,0.39000000,-0.02000000,-1.17339373,0.01928818,8.30868006,0.12000000,8.02000000,-0.00000000
834,0,-0.14000000,0.00500000,0.99100000,-0.07000000,0.17000000,0.17000000,-1.17352891,0.01929301,8.30963696,0.12000000,8.02000000,-0.00000000
835,0,-0.14200000,-0.00100000,0.99300000,0.09000000,-0.28000000,-0.06000000,-1.17365705,0.01929211,8.31053306,0.12000000,8.02000000,-0.00000000
836,0,-0.14100000,0.00400000,0.99200000,0.14000000,-0.01000000,-0.02000000,-1.17383996,0.01929730,8.31181992,0.12000000,8.02000000,-0.00000000
837,0,-0.13600000,0.00600000,0.99000000,0.00000000,-0.19000000,0.15000000,-1.17402268,0.01930536,8.31314997,0.12000000,8.02000000,-0.00000000
838,0,-0.14100000,-0.00300000,0.98800000,0.14000000,0.08000000,0.16000000,-1.17428442,0.01929979,8.31498402,0.12000000,8.02000000,-0.00000000
839,0,-0.14100000,0.00200000,0.98600000,-0.06000000,-0.09000000,-0.29000000,-1.18185897,0.01940723,8.36795218,0.12000000,8.02000000,-0.00000000
840,0,-0.13800000,0.00100000,0.99300000,-0.14000000,0.04000000,0.05000000,-1.18201368,0.01940835,8.36906537,0.12000000,8.02000000,-0.00000000
841,0,-0.13900000,0.00000000,0.98500000,0.10000000,-0.00000000,0.40000000,-1.18214107,0.01940835,8.36996811,0.12000000,8.02000000,-0.00000000
