Measurement Count,IMU_MODE,Accel_X,Accel_Y,Accel_Z,Gyro_X,Gyro_Y,Gyro_Z,X_DEL_ANG,Y_DEL_ANG,Z_DEL_ANG,ROLL,PITCH,HEADING
1,0,0.47700000,0.06000000,0.87600000,-0.09000000,0.23000000,0.17000000,-0.00008953,0.00022880,0.00016911,3.89000000,-28.48000000,0.00000000
2,0,0.47900000,0.05500000,0.87900000,0.01000000,-0.21000000,-0.02000000,-0.00007937,0.00001539,0.00014879,3.80000000,-28.41000000,0.04000000
3,0,0.47300000,0.06000000,0.87700000,0.20000000,0.21000000,-0.17000000,0.00011930,0.00022399,-0.00002008,3.86000000,-28.41000000,0.02000000
4,0,0.47900000,0.05600000,0.87900000,-0.24000000,-0.29000000,-0.09000000,-0.00012105,-0.00006643,-0.00011021,3.85000000,-28.42000000,0.02000000
5,0,0.47800000,0.05800000,0.87800000,0.03000000,0.02000000,-0.16000000,-0.00009115,-0.00004650,-0.00026965,3.86000000,-28.46000000,0.02000000
6,0,0.47600000,0.05800000,0.87600000,-0.05000000,0.12000000,0.01000000,-0.00014064,0.00007227,-0.00025975,3.85000000,-28.46000000,0.02000000
7,0,0.48100000,0.06500000,0.87900000,-0.04000000,0.04000000,0.11000000,-0.00018033,0.00011196,-0.00015061,3.85000000,-28.45000000,0.02000000
8,0,0.47800000,0.05800000,0.87900000,-0.11000000,-0.06000000,0.12000000,-0.00028907,0.00005264,-0.00003198,3.84000000,-28.45000000,0.02000000
9,0,0.47800000,0.05800000,0.88400000,0.05000000,-0.29000000,0.05000000,-0.00023926,-0.00023626,0.00001783,3.84000000,-28.46000000,0.03000000
10,0,0.47800000,0.05800000,0.87900000,0.07000000,-0.20000000,0.07000000,-0.00016884,-0.00043746,0.00008825,3.84000000,-28.46000000,0.03000000
11,0,0.47100000,0.06000000,0.87700000,0.14000000,-0.08000000,-0.26000000,-0.00003031,-0.00051662,-0.00016903,3.83000000,-28.46000000,0.03000000
12,0,0.47400000,0.06200000,0.88200000,-0.07000000,-0.05000000,-0.18000000,-0.00010003,-0.00056642,-0.00034831,3.83000000,-28.46000000,0.03000000
13,0,0.47700000,0.05700000,0.88000000,0.04000000,0.01000000,-0.11000000,-0.00005960,-0.00055631,-0.00045949,3.82000000,-28.47000000,0.03000000
14,0,0.47900000,0.05500000,0.87600000,-0.30000000,-0.16000000,-0.07000000,-0.00035825,-0.00071559,-0.00052917,3.82000000,-28.47000000,0.04000000
15,0,0.47300000,0.06100000,0.87600000,0.00000000,-0.08000000,-0.26000000,-0.00035825,-0.00079538,-0.00078850,3.82000000,-28.46000000,0.03000000
16,0,0.47400000,0.05600000,0.88100000,-0.01000000,0.09000000,0.05000000,-0.00036822,-0.00070566,-0.00073865,3.81000000,-28.46000000,0.04000000
17,0,0.48000000,0.06000000,0.88200000,-0.11000000,-0.08000000,-0.18000000,-0.00047733,-0.00078501,-0.00091720,3.80000000,-28.46000000,0.04000000
18,0,0.47900000,0.05800000,0.87900000,-0.18000000,0.26000000,-0.16000000,-0.00066772,-0.00051000,-0.00108644,3.79000000,-28.46000000,0.04000000
19,0,0.48000000,0.06300000,0.88000000,0.04000000,-0.28000000,-0.13000000,-0.00062618,-0.00080076,-0.00122143,3.80000000,-28.46000000,0.04000000
20,0,0.47200000,0.05700000,0.87800000,0.21000000,-0.20000000,-0.04000000,-0.00036946,-0.00104526,-0.00127033,3.81000000,-28.46000000,0.04000000
21,0,0.47800000,0.06100000,0.87800000,-0.11000000,-0.00000000,-0.24000000,-0.00049827,-0.00104526,-0.00155136,3.81000000,-28.45000000,0.03000000
22,0,0.47900000,0.06400000,0.88000000,-0.08000000,-0.22000000,0.12000000,-0.00061413,-0.00136387,-0.00137757,3.80000000,-28.46000000,0.04000000
23,0,0.47400000,0.05900000,0.88200000,-0.06000000,-0.24000000,-0.19000000,-0.00069115,-0.00167197,-0.00162149,3.80000000,-28.46000000,0.04000000
24,0,0.47600000,0.05500000,0.87900000,0.13000000,0.02000000,-0.07000000,-0.00053722,-0.00164829,-0.00170437,3.79000000,-28.46000000,0.04000000
25,0,0.47300000,0.05900000,0.87800000,0.26000000,0.25000000,0.20000000,-0.00021349,-0.00133701,-0.00145535,3.79000000,-28.46000000,0.04000000
26,0,0.47600000,0.06300000,0.88000000,-0.09000000,0.26000000,0.11000000,-0.00031429,-0.00104582,-0.00133215,3.79000000,-28.46000000,0.04000000
27,0,0.47700000,0.05600000,0.87600000,-0.09000000,0.08000000,-0.06000000,-0.00041268,-0.00095836,-0.00139775,3.79000000,-28.46000000,0.04000000
28,0,0.47600000,0.05800000,0.88000000,0.06000000,-0.01000000,0.08000000,0.00069088,-0.00114229,0.00007367,3.79000000,-28.45000000,0.04000000
29,0,0.47600000,0.05500000,0.87400000,-0.08000000,-0.00000000,0.02000000,0.00060014,-0.00114229,0.00009635,3.79000000,-28.45000000,0.04000000
30,0,0.47900000,0.06000000,0.87900000,-0.08000000,0.01000000,0.05000000,0.00051810,-0.00113203,0.00014763,3.79000000,-28.45000000,0.04000000
31,0,0.48000000,0.05600000,0.88200000,-0.07000000,-0.09000000,-0.14000000,0.00044526,-0.00122568,0.00000195,3.79000000,-28.46000000,0.04000000
32,0,0.47500000,0.06100000,0.87700000,-0.08000000,-0.11000000,-0.15000000,0.00036388,-0.00133757,-0.00015063,3.80000000,-28.45000000,0.04000000
33,0,0.47600000,0.05900000,0.87800000,-0.10000000,0.04000000,-0.03000000,0.00026364,-0.00129748,-0.00018070,3.80000000,-28.45000000,0.04000000
34,0,0.48000000,0.05900000,0.88000000,-0.15000000,-0.19000000,-0.08000000,0.00010580,-0.00149740,-0.00026488,3.80000000,-28.45000000,0.04000000
35,0,0.47400000,0.05900000,0.88000000,-0.12000000,-0.07000000,-0.07000000,-0.00661781,-0.00541951,-0.00418699,3.80000000,-28.45000000,0.04000000
36,0,0.48000000,0.05600000,0.87600000,-0.09000000,-0.15000000,-0.06000000,-0.00671316,-0.00557842,-0.00425055,3.79000000,-28.45000000,0.04000000
37,0,0.48100000,0.05900000,0.87500000,0.08000000,-0.16000000,-0.06000000,-0.00663188,-0.00574098,-0.00431151,3.80000000,-28.45000000,0.04000000
38,0,0.47500000,0.06000000,0.88000000,0.11000000,0.01000000,-0.01000000,-0.00652167,-0.00573096,-0.00432153,3.80000000,-28.45000000,0.03000000
39,0,0.47600000,0.06100000,0.88000000,-0.09000000,-0.00000000,0.03000000,-0.00661212,-0.00573096,-0.00429138,3.80000000,-28.45000000,0.03000000
40,0,0.47600000,0.06100000,0.88100000,-0.04000000,-0.12000000,-0.12000000,-0.00665246,-0.00585200,-0.00441242,3.80000000,-28.44000000,0.03000000
41,0,0.47200000,0.06100000,0.88300000,0.01000000,-0.29000000,0.02000000,-0.00609775,-0.02193860,-0.00330300,3.80000000,-28.44000000,0.03000000
42,0,0.47400000,0.06300000,0.87800000,0.13000000,-0.08000000,-0.03000000,-0.00596040,-0.02202312,-0.00333469,3.81000000,-28.44000000,0.03000000
43,0,0.47300000,0.05800000,0.87900000,0.03000000,-0.41000000,0.04000000,-0.00592987,-0.02244037,-0.00329398,3.81000000,-28.44000000,0.03000000
44,0,0.48000000,0.06200000,0.87700000,-0.02000000,0.07000000,0.13000000,-0.00594987,-0.02237038,-0.00316401,3.81000000,-28.44000000,0.03000000
45,0,0.47600000,0.05700000,0.87900000,0.05000000,-0.28000000,0.07000000,-0.00589981,-0.02265073,-0.00309393,3.81000000,-28.44000000,0.03000000
46,0,0.47500000,0.06300000,0.87800000,0.13000000,-0.14000000,0.08000000,-0.00576980,-0.02279073,-0.00301392,3.82000000,-28.44000000,0.02000000
47,0,0.47500000,0.05600000,0.87900000,-0.06000000,0.02000000,0.06000000,-0.00911033,-0.02167722,0.00032660,3.82000000,-28.44000000,0.02000000
48,0,0.47200000,0.06400000,0.87800000,-0.08000000,-0.06000000,0.13000000,-0.00919552,-0.02174112,0.00046503,3.82000000,-28.44000000,0.02000000
49,0,0.47300000,0.06300000,0.88000000,-0.29000000,0.01000000,-0.14000000,-0.00948864,-0.02173101,0.00032353,3.82000000,-28.44000000,0.02000000
50,0,0.47300000,0.05900000,0.88000000,0.13000000,0.01000000,-0.23000000,-0.00935845,-0.02172099,0.00009319,3.82000000,-28.44000000,0.02000000
51,0,0.48000000,0.05900000,0.87900000,0.04000000,0.03000000,-0.12000000,-0.00931808,-0.02169072,-0.00002790,3.82000000,-28.44000000,0.02000000
52,0,0.47900000,0.06100000,0.87800000,0.11000000,0.05000000,0.17000000,-0.00919929,-0.02163673,0.00015568,3.82000000,-28.44000000,0.02000000
53,0,0.48000000,0.05500000,0.88100000,0.21000000,-0.02000000,-0.00000000,0.00261325,-0.02276173,0.00015568,3.82000000,-28.44000000,0.03000000
54,0,0.48000000,0.06100000,0.87900000,-0.12000000,0.07000000,0.16000000,0.00248663,-0.02268787,0.00032450,3.82000000,-28.43000000,0.03000000
55,0,0.47400000,0.05600000,0.87500000,0.04000000,0.03000000,-0.12000000,0.00252664,-0.02265787,0.00020450,3.82000000,-28.44000000,0.03000000
56,0,0.47500000,0.06100000,0.87700000,0.09000000,0.09000000,0.13000000,0.00261606,-0.02256845,0.00033366,3.82000000,-28.43000000,0.03000000
57,0,0.47900000,0.05600000,0.87600000,0.21000000,0.07000000,0.20000000,0.00282441,-0.02249900,0.00053210,3.82000000,-28.44000000,0.03000000
58,0,0.47300000,0.06000000,0.88100000,0.04000000,-0.08000000,-0.12000000,0.00286445,-0.02257908,0.00041198,3.82000000,-28.44000000,0.03000000
59,0,0.47800000,0.06100000,0.87500000,-0.06000000,-0.39000000,0.02000000,-0.00046344,-0.04421037,0.00152127,3.82000000,-28.44000000,0.03000000
60,0,0.47800000,0.06300000,0.88100000,-0.05000000,-0.18000000,-0.01000000,-0.00051635,-0.04440084,0.00151069,3.82000000,-28.44000000,0.03000000
61,0,0.47300000,0.06300000,0.87500000,-0.18000000,-0.08000000,0.14000000,-0.00069640,-0.04448086,0.00165073,3.82000000,-28.44000000,0.03000000
62,0,0.47700000,0.05500000,0.87800000,0.02000000,0.13000000,0.02000000,-0.00067656,-0.04435195,0.00167056,3.82000000,-28.44000000,0.03000000
63,0,0.48300000,0.05800000,0.87500000,-0.14000000,0.04000000,0.05000000,-0.00081563,-0.04431221,0.00172023,3.82000000,-28.44000000,0.03000000
64,0,0.47800000,0.05800000,0.87900000,-0.14000000,-0.11000000,0.26000000,-0.00095724,-0.04442347,0.00198321,3.82000000,-28.44000000,0.03000000
65,0,0.47400000,0.05600000,0.87500000,-0.32000000,-0.16000000,0.16000000,-0.01886316,-0.05337643,0.01093617,3.82000000,-28.44000000,0.03000000
66,0,0.47400000,0.06000000,0.87900000,0.02000000,-0.05000000,0.11000000,-0.01884161,-0.05343028,0.01105465,3.82000000,-28.44000000,0.03000000
67,0,0.47800000,0.06100000,0.87600000,-0.12000000,-0.03000000,-0.07000000,-0.01896399,-0.05346088,0.01098326,3.82000000,-28.44000000,0.03000000
68,0,0.47700000,0.05900000,0.88200000,-0.08000000,0.18000000,0.20000000,-0.01904495,-0.05327873,0.01118565,3.81000000,-28.44000000,0.03000000
69,0,0.48000000,0.05800000,0.87700000,0.04000000,0.03000000,-0.17000000,-0.01900484,-0.05324865,0.01101520,3.82000000,-28.44000000,0.03000000
70,0,0.47200000,0.06200000,0.88100000,0.05000000,-0.04000000,-0.10000000,-0.01895399,-0.05328933,0.01091350,3.82000000,-28.44000000,0.03000000
71,0,0.47900000,0.05800000,0.87900000,0.09000000,0.12000000,-0.06000000,-0.01391517,-0.04657089,0.00755428,3.82000000,-28.44000000,0.03000000
72,0,0.47100000,0.05600000,0.87900000,0.27000000,-0.01000000,0.06000000,-0.01363003,-0.04658145,0.00761765,3.82000000,-28.44000000,0.03000000
73,0,0.47600000,0.06200000,0.88000000,-0.20000000,0.05000000,-0.18000000,-0.01383304,-0.04653070,0.00743494,3.82000000,-28.44000000,0.03000000
74,0,0.47700000,0.06200000,0.88100000,0.06000000,-0.14000000,-0.25000000,-0.01377301,-0.04667077,0.00718481,3.82000000,-28.43000000,0.03000000
75,0,0.47700000,0.05900000,0.88000000,0.11000000,-0.03000000,0.00000000,-0.01366143,-0.04670120,0.00718481,3.82000000,-28.44000000,0.03000000
76,0,0.48000000,0.06000000,0.87700000,0.11000000,0.42000000,0.02000000,-0.01355043,-0.04627738,0.00720499,3.82000000,-28.44000000,0.03000000
77,0,0.47900000,0.05800000,0.87800000,-0.05000000,-0.24000000,0.11000000,-0.01632374,-0.05958923,0.01330626,3.82000000,-28.44000000,0.03000000
78,0,0.47100000,0.05500000,0.87800000,0.09000000,-0.01000000,0.03000000,-0.01622622,-0.05960006,0.01333876,3.82000000,-28.44000000,0.03000000
79,0,0.47700000,0.05900000,0.88000000,0.12000000,-0.07000000,0.07000000,-0.01610244,-0.05967227,0.01341097,3.82000000,-28.44000000,0.03000000
80,0,0.47700000,0.05900000,0.87800000,0.07000000,-0.10000000,-0.17000000,-0.01603047,-0.05977508,0.01323618,3.82000000,-28.44000000,0.03000000
81,0,0.47600000,0.06700000,0.87900000,0.01000000,-0.12000000,0.10000000,-0.01602012,-0.05989932,0.01333971,3.83000000,-28.44000000,0.02000000
82,0,0.47900000,0.06300000,0.88100000,-0.08000000,0.04000000,0.03000000,-0.01610285,-0.05985796,0.01337074,3.83000000,-28.44000000,0.03000000
83,0,0.48200000,0.06400000,0.87600000,-0.04000000,-0.04000000,-0.01000000,-0.01835672,-0.06211183,0.01280727,3.83000000,-28.44000000,0.02000000
84,0,0.47000000,0.05600000,0.87700000,-0.01000000,-0.04000000,0.09000000,-0.01836753,-0.06215507,0.01290457,3.83000000,-28.44000000,0.02000000
85,0,0.47200000,0.06000000,0.87800000,0.11000000,0.07000000,0.06000000,-0.01825700,-0.06208474,0.01296485,3.83000000,-28.44000000,0.03000000
86,0,0.47700000,0.06000000,0.87700000,0.16000000,-0.04000000,-0.11000000,-0.01809536,-0.06212515,0.01285372,3.83000000,-28.44000000,0.02000000
87,0,0.47300000,0.06300000,0.88100000,0.11000000,-0.21000000,0.07000000,-0.01798422,-0.06233731,0.01292444,3.83000000,-28.44000000,0.02000000
88,0,0.47200000,0.06400000,0.87600000,0.10000000,-0.13000000,-0.14000000,-0.01788365,-0.06246805,0.01278364,3.83000000,-28.44000000,0.02000000
89,0,0.47500000,0.05500000,0.88300000,-0.02000000,-0.11000000,-0.23000000,-0.01899260,-0.06856730,0.00003067,3.83000000,-28.44000000,0.02000000
90,0,0.47500000,0.06200000,0.87800000,-0.10000000,-0.22000000,-0.11000000,-0.01909668,-0.06879628,-0.00008382,3.83000000,-28.44000000,0.02000000
91,0,0.47600000,0.05700000,0.87800000,-0.10000000,0.07000000,0.13000000,-0.01919604,-0.06872672,0.00004535,3.83000000,-28.44000000,0.02000000
92,0,0.48300000,0.05800000,0.87800000,0.15000000,0.01000000,0.10000000,-0.01904436,-0.06871661,0.00014647,3.83000000,-28.44000000,0.02000000
93,0,0.47600000,0.06100000,0.87600000,0.16000000,0.05000000,-0.03000000,-0.01888283,-0.06866613,0.00011619,3.83000000,-28.44000000,0.02000000
94,0,0.47800000,0.06300000,0.87600000,-0.24000000,-0.16000000,0.06000000,-0.01912278,-0.06882610,0.00017617,3.84000000,-28.44000000,0.02000000
95,0,0.47500000,0.06400000,0.87900000,-0.06000000,0.00000000,-0.07000000,-0.02245457,-0.06882610,-0.00371092,3.84000000,-28.44000000,0.02000000
96,0,0.47700000,0.05900000,0.88000000,0.06000000,0.14000000,-0.07000000,-0.02239232,-0.06868085,-0.00378354,3.84000000,-28.44000000,0.02000000
97,0,0.47800000,0.05600000,0.87900000,0.02000000,-0.15000000,0.13000000,-0.02237252,-0.06882943,-0.00365478,3.84000000,-28.44000000,0.02000000
98,0,0.47900000,0.06400000,0.87900000,-0.32000000,-0.17000000,0.01000000,-0.02269352,-0.06899996,-0.00364475,3.84000000,-28.44000000,0.02000000
99,0,0.47400000,0.06300000,0.88000000,-0.09000000,0.18000000,-0.13000000,-0.02278307,-0.06882086,-0.00377410,3.84000000,-28.44000000,0.02000000
100,0,0.47700000,0.05900000,0.87500000,-0.17000000,-0.00000000,-0.23000000,-0.02295263,-0.06882086,-0.00400351,3.84000000,-28.44000000,0.01000000
101,0,0.47300000,0.06200000,0.87800000,0.14000000,0.03000000,-0.17000000,-0.01475296,-0.06706379,-0.01396025,3.84000000,-28.44000000,0.01000000
102,0,0.47500000,0.06000000,0.87600000,-0.13000000,-0.03000000,-0.08000000,-0.01491588,-0.06710138,-0.01406050,3.84000000,-28.44000000,0.01000000
103,0,0.47500000,0.05500000,0.87800000,0.08000000,-0.02000000,-0.05000000,-0.01482623,-0.06712380,-0.01411654,3.84000000,-28.43000000,0.01000000
104,0,0.47800000,0.06300000,0.88200000,-0.11000000,-0.09000000,-0.01000000,-0.01517683,-0.06741065,-0.01414841,3.84000000,-28.43000000,0.01000000
105,0,0.47400000,0.06300000,0.87300000,-0.13000000,-0.09000000,-0.22000000,-0.01532397,-0.06751252,-0.01439742,3.84000000,-28.43000000,0.01000000
106,0,0.47200000,0.06000000,0.87700000,-0.04000000,0.03000000,-0.03000000,-0.01541581,-0.06744364,-0.01446630,3.85000000,-28.43000000,0.01000000
107,0,0.47900000,0.05900000,0.87700000,-0.03000000,-0.08000000,0.00000000,-0.01690836,-0.07142377,-0.01446630,3.84000000,-28.43000000,0.01000000
108,0,0.47700000,0.06200000,0.88200000,0.29000000,0.05000000,-0.14000000,-0.01657334,-0.07136601,-0.01462804,3.85000000,-28.43000000,0.01000000
109,0,0.47700000,0.06300000,0.87600000,0.12000000,-0.31000000,-0.01000000,-0.01622091,-0.07227646,-0.01465741,3.85000000,-28.44000000,0.01000000
110,0,0.47700000,0.06000000,0.87700000,0.06000000,0.07000000,-0.12000000,-0.01613114,-0.07217172,-0.01483695,3.85000000,-28.44000000,0.01000000
111,0,0.47600000,0.05700000,0.88000000,0.09000000,-0.15000000,-0.02000000,-0.01602530,-0.07234812,-0.01486047,3.85000000,-28.44000000,0.01000000
112,0,0.47400000,0.06200000,0.87600000,-0.10000000,0.03000000,0.08000000,-0.01613184,-0.07231616,-0.01477524,3.85000000,-28.44000000,0.01000000
113,0,0.47400000,0.05600000,0.87600000,-0.08000000,-0.20000000,0.09000000,-0.02034539,-0.08285004,-0.01003500,3.85000000,-28.44000000,0.01000000
114,0,0.47500000,0.05900000,0.87700000,0.01000000,-0.00000000,0.16000000,-0.02033422,-0.08285004,-0.00985634,3.85000000,-28.44000000,0.01000000
115,0,0.47700000,0.05900000,0.87900000,0.03000000,-0.06000000,-0.06000000,-0.02030148,-0.08291552,-0.00992182,3.85000000,-28.44000000,0.01000000
116,0,0.47900000,0.06100000,0.87900000,0.02000000,0.05000000,0.07000000,-0.02027875,-0.08285870,-0.00984227,3.84000000,-28.44000000,0.01000000
117,0,0.47400000,0.05700000,0.87700000,-0.10000000,-0.04000000,-0.12000000,-0.02040598,-0.08290959,-0.00999495,3.84000000,-28.44000000,0.01000000
118,0,0.47300000,0.06000000,0.87600000,-0.11000000,0.11000000,-0.07000000,-0.02052955,-0.08278603,-0.01007358,3.84000000,-28.44000000,0.01000000
119,0,0.46800000,0.06000000,0.87800000,-0.11000000,-0.11000000,0.01000000,-0.02665890,-0.08891538,-0.00951636,3.84000000,-28.44000000,0.01000000
120,0,0.47300000,0.05600000,0.87900000,0.16000000,-0.39000000,0.06000000,-0.02648665,-0.08933524,-0.00945177,3.84000000,-28.44000000,0.01000000
121,0,0.47900000,0.05800000,0.88200000,-0.10000000,-0.15000000,0.15000000,-0.02658765,-0.08948675,-0.00930026,3.84000000,-28.44000000,0.01000000
122,0,0.47300000,0.05900000,0.87800000,-0.10000000,0.23000000,-0.14000000,-0.02668792,-0.08925614,-0.00944063,3.84000000,-28.44000000,0.01000000
123,0,0.47500000,0.06200000,0.87700000,-0.30000000,0.01000000,-0.04000000,-0.02698850,-0.08924612,-0.00948071,3.84000000,-28.44000000,0.01000000
124,0,0.47700000,0.05300000,0.87700000,-0.24000000,0.10000000,0.05000000,-0.02723005,-0.08914547,-0.00943039,3.84000000,-28.44000000,0.01000000
125,0,0.47200000,0.05800000,0.87900000,-0.17000000,0.15000000,-0.29000000,-0.03664546,-0.08083776,-0.02549196,3.84000000,-28.44000000,0.01000000
126,0,0.47700000,0.05900000,0.87400000,-0.02000000,0.12000000,0.24000000,-0.03666682,-0.08070960,-0.02523565,3.84000000,-28.44000000,0.01000000
127,0,0.47600000,0.05300000,0.87500000,-0.07000000,0.02000000,0.07000000,-0.03673712,-0.08068952,-0.02516534,3.83000000,-28.43000000,0.01000000
128,0,0.47800000,0.05900000,0.87900000,0.17000000,-0.13000000,0.30000000,-0.03656719,-0.08081946,-0.02486548,3.83000000,-28.43000000,0.01000000
129,0,0.47500000,0.06000000,0.87700000,0.24000000,0.30000000,-0.01000000,-0.03632719,-0.08051945,-0.02487548,3.84000000,-28.43000000,0.01000000
130,0,0.46800000,0.06300000,0.88100000,0.13000000,-0.23000000,-0.00000000,-0.03619684,-0.08075006,-0.02487548,3.84000000,-28.43000000,0.01000000
131,0,0.48100000,0.05600000,0.87900000,-0.24000000,0.28000000,0.01000000,-0.04952443,-0.06520121,-0.02432016,3.84000000,-28.44000000,0.01000000
132,0,0.47500000,0.06000000,0.87300000,-0.07000000,-0.34000000,-0.21000000,-0.04959955,-0.06556611,-0.02454554,3.84000000,-28.43000000,0.01000000
133,0,0.47200000,0.05800000,0.87700000,-0.01000000,0.00000000,0.03000000,-0.04960974,-0.06556611,-0.02451498,3.84000000,-28.43000000,0.01000000
134,0,0.47800000,0.05800000,0.87900000,-0.03000000,-0.31000000,-0.24000000,-0.04964031,-0.06588203,-0.02475957,3.84000000,-28.43000000,0.01000000
135,0,0.47300000,0.06300000,0.88200000,-0.26000000,-0.31000000,0.03000000,-0.04990218,-0.06619426,-0.02472935,3.84000000,-28.43000000,0.01000000
136,0,0.47500000,0.06200000,0.87500000,-0.18000000,0.05000000,0.22000000,-0.05008227,-0.06614423,-0.02450924,3.84000000,-28.43000000,0.01000000
137,0,0.47600000,0.05900000,0.87400000,-0.18000000,-0.04000000,-0.06000000,-0.06023052,-0.06839940,-0.02789199,3.84000000,-28.43000000,0.01000000
138,0,0.47700000,0.05500000,0.87800000,0.03000000,-0.13000000,0.20000000,-0.06019896,-0.06853616,-0.02768159,3.84000000,-28.43000000,0.01000000
139,0,0.47600000,0.06000000,0.88100000,0.05000000,-0.11000000,0.18000000,-0.06014843,-0.06864734,-0.02749965,3.84000000,-28.43000000,0.01000000
140,0,0.47600000,0.05400000,0.87200000,-0.08000000,-0.13000000,0.02000000,-0.06022889,-0.06877809,-0.02747954,3.84000000,-28.44000000,0.01000000
141,0,0.47200000,0.05800000,0.88200000,-0.01000000,0.06000000,-0.05000000,-0.06023893,-0.06871783,-0.02752975,3.84000000,-28.43000000,0.01000000
142,0,0.47700000,0.06000000,0.87500000,-0.04000000,0.23000000,0.24000000,-0.06027966,-0.06848366,-0.02728540,3.84000000,-28.43000000,0.01000000
143,0,0.47500000,0.05900000,0.88300000,-0.04000000,-0.12000000,0.05000000,-0.06249917,-0.07514221,-0.02451100,3.84000000,-28.43000000,0.01000000
144,0,0.47200000,0.05900000,0.87800000,-0.04000000,0.12000000,0.25000000,-0.06254151,-0.07501520,-0.02424639,3.84000000,-28.43000000,0.01000000
145,0,0.47400000,0.05700000,0.87800000,0.09000000,-0.07000000,0.15000000,-0.06245076,-0.07508579,-0.02409513,3.84000000,-28.43000000,0.01000000
146,0,0.47600000,0.05800000,0.87400000,-0.10000000,0.00000000,0.04000000,-0.06255074,-0.07508579,-0.02405514,3.84000000,-28.43000000,0.01000000
147,0,0.47600000,0.06100000,0.87800000,0.05000000,0.15000000,-0.13000000,-0.06250076,-0.07493585,-0.02418508,3.84000000,-28.43000000,0.01000000
148,0,0.47800000,0.05900000,0.87800000,-0.06000000,0.09000000,-0.10000000,-0.06256156,-0.07484465,-0.02428642,3.84000000,-28.43000000,0.01000000
149,0,0.47400000,0.05800000,0.88200000,0.06000000,-0.25000000,0.18000000,-0.05904982,-0.08947690,-0.01375120,3.84000000,-28.43000000,0.01000000
150,0,0.48000000,0.05300000,0.87600000,0.09000000,-0.07000000,-0.08000000,-0.05895323,-0.08955203,-0.01383706,3.84000000,-28.43000000,0.01000000
151,0,0.47500000,0.06000000,0.87400000,0.30000000,-0.20000000,0.12000000,-0.05865086,-0.08975360,-0.01371611,3.84000000,-28.43000000,0.01000000
152,0,0.47200000,0.05800000,0.87800000,-0.14000000,-0.03000000,0.19000000,-0.05879123,-0.08978368,-0.01352561,3.84000000,-28.43000000,0.01000000
153,0,0.46900000,0.05500000,0.87900000,0.16000000,0.13000000,0.24000000,-0.05863092,-0.08965343,-0.01328514,3.84000000,-28.43000000,0.02000000
154,0,0.47500000,0.05600000,0.87900000,0.12000000,0.03000000,0.03000000,-0.05851104,-0.08962346,-0.01325517,3.84000000,-28.43000000,0.01000000
155,0,0.47700000,0.05800000,0.87600000,0.05000000,-0.09000000,0.16000000,-0.05846047,-0.08971447,-0.01309337,3.84000000,-28.43000000,0.01000000
156,0,0.47700000,0.05500000,0.87700000,-0.00000000,-0.01000000,-0.06000000,-0.05846047,-0.09027838,-0.01647684,3.84000000,-28.44000000,0.02000000
157,0,0.47700000,0.06000000,0.87200000,-0.15000000,-0.15000000,-0.22000000,-0.05861981,-0.09043772,-0.01671053,3.84000000,-28.44000000,0.01000000
158,0,0.47600000,0.05900000,0.88000000,-0.12000000,0.04000000,-0.11000000,-0.05874173,-0.09039708,-0.01682229,3.84000000,-28.44000000,0.01000000
159,0,0.47700000,0.05700000,0.87900000,-0.18000000,0.04000000,0.30000000,-0.05892118,-0.09035720,-0.01652321,3.83000000,-28.44000000,0.01000000
160,0,0.47400000,0.06000000,0.87900000,-0.16000000,-0.03000000,-0.08000000,-0.05908351,-0.09038764,-0.01660438,3.84000000,-28.44000000,0.01000000
161,0,0.47700000,0.06100000,0.88000000,0.11000000,0.31000000,0.13000000,-0.05896470,-0.09005280,-0.01646396,3.83000000,-28.44000000,0.01000000
162,0,0.47100000,0.06000000,0.88200000,0.04000000,0.02000000,0.06000000,-0.05674915,-0.08894503,-0.01314065,3.83000000,-28.43000000,0.01000000
163,0,0.47400000,0.06300000,0.87800000,-0.10000000,0.01000000,0.17000000,-0.05685531,-0.08893441,-0.01296019,3.83000000,-28.43000000,0.01000000
164,0,0.47500000,0.05700000,0.87800000,-0.15000000,0.03000000,-0.20000000,-0.05700631,-0.08890421,-0.01316153,3.83000000,-28.43000000,0.01000000
165,0,0.47600000,0.06100000,0.87900000,0.04000000,-0.30000000,0.01000000,-0.05696596,-0.08920687,-0.01315144,3.83000000,-28.43000000,0.01000000
166,0,0.48100000,0.06200000,0.88400000,-0.08000000,-0.05000000,-0.17000000,-0.05705121,-0.08926015,-0.01333259,3.83000000,-28.43000000,0.02000000
167,0,0.47200000,0.05800000,0.87900000,-0.13000000,-0.12000000,0.07000000,-0.05718986,-0.08938813,-0.01325793,3.83000000,-28.43000000,0.01000000
168,0,0.48000000,0.06000000,0.87800000,0.01000000,0.01000000,-0.02000000,-0.05663595,-0.08883422,-0.01436576,3.83000000,-28.43000000,0.01000000
169,0,0.47600000,0.06100000,0.88200000,0.05000000,0.16000000,0.07000000,-0.05658093,-0.08865815,-0.01428873,3.83000000,-28.43000000,0.01000000
170,0,0.47700000,0.06300000,0.87500000,-0.07000000,-0.14000000,0.11000000,-0.05665480,-0.08880590,-0.01417264,3.83000000,-28.43000000,0.01000000
171,0,0.48000000,0.06000000,0.87600000,-0.12000000,0.17000000,-0.09000000,-0.05678304,-0.08862422,-0.01426883,3.83000000,-28.43000000,0.01000000
172,0,0.47000000,0.06200000,0.87400000,0.02000000,0.02000000,-0.07000000,-0.05676112,-0.08860230,-0.01434555,3.83000000,-28.43000000,0.01000000
173,0,0.47100000,0.05700000,0.88100000,-0.11000000,0.18000000,0.12000000,-0.05688057,-0.08840685,-0.01421525,3.83000000,-28.43000000,0.01000000
174,0,0.47000000,0.06400000,0.88100000,0.19000000,-0.11000000,-0.11000000,-0.04621907,-0.09457929,-0.02038769,3.83000000,-28.43000000,0.01000000
175,0,0.47300000,0.05800000,0.88200000,0.01000000,0.01000000,-0.15000000,-0.04620797,-0.09456818,-0.02055426,3.83000000,-28.43000000,0.01000000
176,0,0.47900000,0.06100000,0.87800000,-0.12000000,-0.18000000,0.08000000,-0.04636133,-0.09479823,-0.02045201,3.83000000,-28.43000000,0.01000000
177,0,0.47700000,0.06100000,0.87700000,0.08000000,-0.04000000,0.09000000,-0.04626590,-0.09484594,-0.02034465,3.83000000,-28.43000000,0.01000000
178,0,0.47900000,0.05700000,0.88100000,-0.15000000,-0.06000000,0.13000000,-0.04644376,-0.09491709,-0.02019050,3.83000000,-28.43000000,0.01000000
179,0,0.47300000,0.05900000,0.87900000,-0.01000000,0.02000000,-0.19000000,-0.04645570,-0.09489322,-0.02041725,3.83000000,-28.43000000,0.01000000
180,0,0.47400000,0.05800000,0.87400000,0.18000000,0.04000000,-0.17000000,-0.03663060,-0.09270987,-0.02969651,3.83000000,-28.43000000,0.01000000
181,0,0.47500000,0.06200000,0.87800000,0.20000000,0.11000000,-0.25000000,-0.03637218,-0.09256774,-0.03001953,3.83000000,-28.43000000,0.01000000
182,0,0.47700000,0.06200000,0.87600000,0.00000000,-0.05000000,-0.12000000,-0.03637218,-0.09263118,-0.03017181,3.84000000,-28.43000000,0.01000000
183,0,0.47400000,0.06600000,0.87600000,-0.12000000,-0.06000000,0.05000000,-0.03651968,-0.09270493,-0.03011035,3.84000000,-28.43000000,0.01000000
184,0,0.47400000,0.06100000,0.88000000,0.11000000,-0.16000000,-0.08000000,-0.03638861,-0.09289557,-0.03020567,3.84000000,-28.43000000,0.01000000
185,0,0.47900000,0.06000000,0.87900000,0.08000000,0.04000000,-0.23000000,-0.03629339,-0.09284796,-0.03047943,3.84000000,-28.43000000,0.01000000
186,0,0.47300000,0.05700000,0.87900000,-0.04000000,-0.04000000,0.17000000,-0.03847362,-0.09502819,-0.02121347,3.84000000,-28.43000000,0.01000000
187,0,0.47400000,0.05900000,0.88000000,0.01000000,0.00000000,-0.17000000,-0.03846109,-0.09502819,-0.02142640,3.83000000,-28.43000000,0.01000000
188,0,0.47000000,0.06000000,0.88000000,0.00000000,0.17000000,-0.26000000,-0.03846109,-0.09481039,-0.02175949,3.84000000,-28.43000000,0.01000000
189,0,0.47400000,0.05400000,0.87900000,0.11000000,-0.01000000,-0.13000000,-0.03832652,-0.09482263,-0.02191853,3.84000000,-28.43000000,0.01000000
190,0,0.47900000,0.06200000,0.88000000,-0.09000000,0.04000000,0.01000000,-0.03843607,-0.09477394,-0.02190636,3.83000000,-28.43000000,0.01000000
191,0,0.48000000,0.06100000,0.87900000,-0.10000000,-0.20000000,-0.05000000,-0.03862886,-0.09515953,-0.02200276,3.84000000,-28.43000000,0.01000000
192,0,0.47700000,0.06100000,0.88200000,0.02000000,-0.10000000,0.12000000,-0.03753583,-0.10062469,-0.01544457,3.84000000,-28.43000000,0.01000000
193,0,0.47500000,0.05700000,0.87900000,0.08000000,-0.25000000,-0.01000000,-0.03743943,-0.10092596,-0.01545662,3.84000000,-28.43000000,0.01000000
194,0,0.47700000,0.06100000,0.87700000,-0.06000000,-0.13000000,0.18000000,-0.03750525,-0.10106858,-0.01525915,3.84000000,-28.43000000,0.01000000
195,0,0.47200000,0.06100000,0.87800000,-0.33000000,-0.08000000,0.02000000,-0.03784856,-0.10115180,-0.01523834,3.84000000,-28.43000000,0.01000000
196,0,0.47300000,0.05800000,0.88000000,-0.05000000,0.00000000,-0.09000000,-0.03789945,-0.10115180,-0.01532995,3.84000000,-28.43000000,0.01000000
197,0,0.48000000,0.05500000,0.87900000,-0.01000000,-0.18000000,0.18000000,-0.03790951,-0.10133288,-0.01514887,3.84000000,-28.43000000,0.00000000
198,0,0.48000000,0.06100000,0.88000000,0.00000000,0.09000000,0.02000000,-0.03790951,-0.09637503,-0.01404713,3.84000000,-28.43000000,0.01000000
199,0,0.47200000,0.06500000,0.87700000,-0.16000000,-0.32000000,0.16000000,-0.03807863,-0.09671328,-0.01387801,3.84000000,-28.43000000,0.01000000
200,0,0.47800000,0.05400000,0.88000000,-0.09000000,0.21000000,-0.15000000,-0.03817100,-0.09649776,-0.01403195,3.84000000,-28.43000000,0.00000000
201,0,0.47800000,0.05600000,0.87800000,0.10000000,0.04000000,0.06000000,-0.03806749,-0.09645636,-0.01396984,3.84000000,-28.43000000,0.01000000
202,0,0.47200000,0.06300000,0.88200000,0.33000000,0.10000000,0.01000000,-0.03773370,-0.09635521,-0.01395973,3.84000000,-28.43000000,0.01000000
203,0,0.47500000,0.05900000,0.87900000,-0.12000000,0.02000000,0.12000000,-0.03785705,-0.09633466,-0.01383638,3.84000000,-28.43000000,0.01000000
204,0,0.47900000,0.05700000,0.87700000,-0.05000000,-0.10000000,-0.01000000,-0.04062854,-0.10187764,-0.01439067,3.84000000,-28.43000000,0.00000000
205,0,0.47800000,0.05700000,0.88100000,-0.13000000,-0.20000000,-0.11000000,-0.04076589,-0.10208894,-0.01450689,3.84000000,-28.43000000,0.00000000
206,0,0.47400000,0.05900000,0.87800000,0.04000000,0.03000000,0.14000000,-0.04072541,-0.10205858,-0.01436519,3.84000000,-28.43000000,0.00000000
207,0,0.47300000,0.06000000,0.87900000,-0.07000000,0.07000000,-0.13000000,-0.04079499,-0.10198899,-0.01449441,3.84000000,-28.43000000,0.00000000
208,0,0.47500000,0.06800000,0.88200000,-0.14000000,0.02000000,-0.11000000,-0.04093469,-0.10196903,-0.01460418,3.84000000,-28.43000000,0.00000000
209,0,0.47700000,0.06100000,0.87700000,0.01000000,-0.25000000,0.24000000,-0.04092420,-0.10223150,-0.01435222,3.84000000,-28.43000000,0.00000000
210,0,0.47300000,0.05900000,0.87700000,0.01000000,-0.05000000,0.26000000,-0.04035994,-0.10505279,0.00031852,3.83000000,-28.43000000,0.01000000
211,0,0.47500000,0.06000000,0.87600000,-0.15000000,-0.25000000,0.00000000,-0.04052074,-0.10532080,0.00031852,3.83000000,-28.43000000,0.01000000
212,0,0.47600000,0.06300000,0.87700000,-0.12000000,-0.05000000,0.02000000,-0.04064152,-0.10537113,0.00033865,3.83000000,-28.43000000,0.01000000
213,0,0.47900000,0.06300000,0.88000000,0.17000000,0.12000000,-0.01000000,-0.04047074,-0.10525058,0.00032861,3.83000000,-28.43000000,0.01000000
214,0,0.47100000,0.06000000,0.88200000,0.08000000,-0.21000000,0.09000000,-0.04039116,-0.10545948,0.00041814,3.83000000,-28.43000000,0.01000000
215,0,0.47700000,0.06000000,0.87600000,0.22000000,0.19000000,-0.23000000,-0.04016292,-0.10526237,0.00017952,3.83000000,-28.43000000,0.01000000
216,0,0.47500000,0.05700000,0.87700000,-0.14000000,-0.05000000,0.12000000,-0.04793434,-0.10803787,0.00684074,3.83000000,-28.43000000,0.01000000
217,0,0.47600000,0.06100000,0.88000000,0.16000000,0.03000000,-0.26000000,-0.04775621,-0.10800447,0.00655128,3.83000000,-28.43000000,0.01000000
218,0,0.47800000,0.05400000,0.87900000,0.09000000,-0.01000000,-0.06000000,-0.04766507,-0.10801460,0.00649052,3.83000000,-28.43000000,0.01000000
219,0,0.47300000,0.05600000,0.87800000,0.07000000,-0.07000000,0.18000000,-0.04759500,-0.10808467,0.00667070,3.83000000,-28.43000000,0.01000000
220,0,0.48100000,0.06000000,0.87600000,0.17000000,0.11000000,-0.18000000,-0.04742536,-0.10797490,0.00649108,3.83000000,-28.43000000,0.01000000
221,0,0.47700000,0.05600000,0.87800000,0.03000000,0.11000000,0.05000000,-0.04739508,-0.10786385,0.00654156,3.83000000,-28.43000000,0.01000000
222,0,0.48000000,0.06100000,0.88100000,0.17000000,-0.24000000,-0.22000000,-0.03795803,-0.12118674,-0.00567109,3.83000000,-28.43000000,0.01000000
223,0,0.47600000,0.05600000,0.87600000,0.11000000,-0.13000000,0.06000000,-0.03784073,-0.12132536,-0.00560711,3.83000000,-28.43000000,0.01000000
224,0,0.47600000,0.06100000,0.87500000,-0.28000000,0.11000000,-0.20000000,-0.03812174,-0.12121497,-0.00580783,3.83000000,-28.43000000,0.01000000
225,0,0.47200000,0.06200000,0.88000000,-0.00000000,-0.10000000,-0.12000000,-0.03812174,-0.12131476,-0.00592758,3.83000000,-28.43000000,0.01000000
226,0,0.47600000,0.06000000,0.87500000,-0.10000000,0.17000000,-0.00000000,-0.03822110,-0.12114585,-0.00592758,3.83000000,-28.43000000,0.01000000
227,0,0.47600000,0.06100000,0.87600000,-0.00000000,-0.07000000,0.05000000,-0.03822110,-0.12121640,-0.00587718,3.83000000,-28.43000000,0.01000000
228,0,0.47100000,0.05700000,0.87800000,-0.04000000,-0.04000000,-0.16000000,-0.04047475,-0.12347005,-0.01489179,3.83000000,-28.43000000,0.01000000
229,0,0.47800000,0.05800000,0.87700000,0.10000000,0.09000000,-0.07000000,-0.04036886,-0.12337475,-0.01496591,3.83000000,-28.43000000,0.01000000
230,0,0.47200000,0.05900000,0.87300000,0.18000000,-0.01000000,-0.05000000,-0.04013315,-0.12338784,-0.01503139,3.83000000,-28.43000000,0.01000000
231,0,0.47400000,0.05700000,0.87700000,-0.16000000,-0.25000000,-0.06000000,-0.04029655,-0.12364315,-0.01509266,3.83000000,-28.43000000,0.01000000
232,0,0.48000000,0.05300000,0.87800000,-0.02000000,0.15000000,0.23000000,-0.04031826,-0.12348038,-0.01484308,3.83000000,-28.43000000,0.01000000
233,0,0.47400000,0.06100000,0.87900000,0.15000000,-0.07000000,0.19000000,-0.04015992,-0.12355427,-0.01464252,3.83000000,-28.43000000,0.01000000
234,0,0.47200000,0.05900000,0.87700000,-0.15000000,-0.01000000,0.07000000,-0.04841606,-0.12410468,-0.01078965,3.83000000,-28.43000000,0.01000000
235,0,0.47600000,0.06000000,0.88000000,-0.06000000,-0.09000000,0.05000000,-0.04847945,-0.12419977,-0.01073683,3.83000000,-28.43000000,0.01000000
236,0,0.47300000,0.06100000,0.87800000,-0.27000000,-0.23000000,0.03000000,-0.04874894,-0.12442934,-0.01070688,3.83000000,-28.43000000,0.01000000
237,0,0.47300000,0.06000000,0.87900000,0.12000000,-0.13000000,-0.07000000,-0.04862951,-0.12455872,-0.01077655,3.83000000,-28.43000000,0.01000000
238,0,0.47400000,0.06200000,0.88000000,-0.06000000,0.11000000,-0.19000000,-0.04869012,-0.12444762,-0.01096846,3.83000000,-28.42000000,0.01000000
239,0,0.47400000,0.05700000,0.87800000,0.01000000,-0.13000000,-0.05000000,-0.04868007,-0.12457821,-0.01101869,3.83000000,-28.42000000,0.01000000
240,0,0.47200000,0.05700000,0.87800000,0.13000000,-0.05000000,0.19000000,-0.04144695,-0.12736018,-0.00044721,3.83000000,-28.42000000,0.01000000
241,0,0.47100000,0.05200000,0.87800000,0.28000000,0.05000000,-0.32000000,-0.04114872,-0.12730692,-0.00078804,3.83000000,-28.42000000,0.01000000
242,0,0.47500000,0.06000000,0.87500000,-0.06000000,-0.10000000,-0.06000000,-0.04120929,-0.12740788,-0.00084862,3.83000000,-28.42000000,0.01000000
243,0,0.47800000,0.05700000,0.87500000,-0.05000000,-0.02000000,0.22000000,-0.04126001,-0.12742817,-0.00062546,3.83000000,-28.42000000,0.01000000
244,0,0.47600000,0.05700000,0.88000000,0.08000000,0.23000000,-0.21000000,-0.04117778,-0.12719174,-0.00084133,3.83000000,-28.42000000,0.01000000
245,0,0.47800000,0.05600000,0.87700000,0.09000000,0.06000000,-0.16000000,-0.04108417,-0.12712934,-0.00100774,3.83000000,-28.42000000,0.00000000
246,0,0.47600000,0.06000000,0.88300000,-0.13000000,0.04000000,-0.16000000,-0.04839809,-0.12487890,-0.01000949,3.83000000,-28.42000000,0.00000000
247,0,0.47100000,0.05700000,0.88200000,-0.16000000,0.00000000,-0.07000000,-0.04856683,-0.12487890,-0.01008331,3.83000000,-28.42000000,0.00000000
248,0,0.47700000,0.06400000,0.87900000,-0.01000000,-0.00000000,-0.22000000,-0.04857688,-0.12487890,-0.01030442,3.83000000,-28.42000000,0.00000000
249,0,0.47600000,0.05100000,0.88000000,-0.19000000,0.04000000,-0.05000000,-0.04876765,-0.12483874,-0.01035463,3.83000000,-28.42000000,0.00000000
250,0,0.47100000,0.06000000,0.87600000,-0.19000000,0.05000000,-0.09000000,-0.04895694,-0.12478893,-0.01044429,3.83000000,-28.42000000,0.00000000
251,0,0.47100000,0.05500000,0.87600000,-0.06000000,-0.02000000,-0.22000000,-0.04901744,-0.12480909,-0.01066613,3.83000000,-28.42000000,0.00000000
252,0,0.47400000,0.06000000,0.87500000,0.06000000,-0.16000000,-0.27000000,-0.04568813,-0.13368725,-0.02564801,3.83000000,-28.42000000,0.00000000
253,0,0.47100000,0.05800000,0.87600000,-0.08000000,-0.07000000,-0.01000000,-0.04577212,-0.13376074,-0.02565851,3.83000000,-28.42000000,-0.00000000
254,0,0.47500000,0.05900000,0.87700000,0.05000000,-0.05000000,0.21000000,-0.04572225,-0.13381061,-0.02544905,3.83000000,-28.42000000,0.00000000
255,0,0.47600000,0.06400000,0.87900000,-0.12000000,-0.13000000,-0.08000000,-0.04584303,-0.13394145,-0.02552957,3.83000000,-28.42000000,0.00000000
256,0,0.47800000,0.06100000,0.87500000,-0.11000000,-0.05000000,0.05000000,-0.04595334,-0.13399159,-0.02547943,3.83000000,-28.42000000,0.00000000
257,0,0.47600000,0.06200000,0.87700000,-0.14000000,0.04000000,0.20000000,-0.04609245,-0.13395185,-0.02528071,3.83000000,-28.42000000,0.00000000
258,0,0.47600000,0.05700000,0.87600000,-0.02000000,0.09000000,0.06000000,-0.04721127,-0.12891714,-0.02192424,3.83000000,-28.42000000,0.00000000
259,0,0.47600000,0.05800000,0.87700000,0.15000000,0.00000000,-0.05000000,-0.04702972,-0.12891714,-0.02198475,3.83000000,-28.42000000,0.00000000
260,0,0.47600000,0.05900000,0.88400000,0.11000000,0.00000000,-0.08000000,-0.04691799,-0.12891714,-0.02206601,3.83000000,-28.42000000,0.00000000
261,0,0.47800000,0.05800000,0.87700000,0.13000000,-0.01000000,-0.15000000,-0.04678696,-0.12892722,-0.02221720,3.83000000,-28.42000000,0.00000000
262,0,0.47100000,0.06200000,0.87800000,-0.03000000,-0.08000000,0.18000000,-0.04681710,-0.12900758,-0.02203638,3.83000000,-28.42000000,0.00000000
263,0,0.47500000,0.05700000,0.87300000,-0.17000000,0.08000000,-0.15000000,-0.04698650,-0.12892787,-0.02218584,3.83000000,-28.42000000,0.00000000
264,0,0.47500000,0.06600000,0.87600000,0.19000000,-0.13000000,-0.01000000,-0.03636682,-0.13619396,-0.02274478,3.83000000,-28.42000000,0.00000000
265,0,0.47600000,0.05600000,0.87800000,-0.12000000,-0.06000000,0.09000000,-0.03649374,-0.13625743,-0.02264958,3.83000000,-28.42000000,0.00000000
266,0,0.47500000,0.06200000,0.87600000,0.12000000,0.17000000,0.16000000,-0.03637174,-0.13608459,-0.02248690,3.83000000,-28.42000000,0.00000000
267,0,0.47400000,0.05800000,0.87700000,-0.47000000,-0.19000000,0.05000000,-0.03684142,-0.13627445,-0.02243694,3.83000000,-28.42000000,0.00000000
268,0,0.47600000,0.06000000,0.87800000,0.01000000,0.12000000,0.10000000,-0.03683146,-0.13615497,-0.02233736,3.83000000,-28.42000000,0.00000000
269,0,0.47800000,0.05900000,0.87600000,0.03000000,0.14000000,-0.14000000,-0.03680159,-0.13601556,-0.02247677,3.83000000,-28.42000000,0.00000000
270,0,0.47300000,0.06000000,0.87700000,-0.03000000,0.20000000,0.05000000,-0.03846630,-0.12491744,-0.01970224,3.83000000,-28.42000000,0.00000000
271,0,0.47300000,0.05400000,0.87700000,-0.11000000,0.21000000,-0.13000000,-0.03858048,-0.12469948,-0.01983717,3.83000000,-28.42000000,0.00000000
272,0,0.47800000,0.05500000,0.88100000,-0.02000000,0.09000000,-0.06000000,-0.03860054,-0.12460919,-0.01989736,3.83000000,-28.42000000,0.00000000
273,0,0.47600000,0.05900000,0.88400000,0.16000000,0.18000000,-0.05000000,-0.03844069,-0.12442936,-0.01994731,3.83000000,-28.42000000,0.00000000
274,0,0.47200000,0.06200000,0.87400000,-0.13000000,-0.15000000,-0.19000000,-0.03856951,-0.12457801,-0.02013560,3.83000000,-28.42000000,-0.00000000
275,0,0.47600000,0.05800000,0.88000000,0.17000000,-0.01000000,-0.06000000,-0.03840105,-0.12458792,-0.02019505,3.83000000,-28.42000000,-0.00000000
276,0,0.47700000,0.05600000,0.87900000,0.00000000,-0.30000000,0.10000000,-0.03840105,-0.14221686,-0.01431874,3.83000000,-28.42000000,-0.00000000
277,0,0.47600000,0.05400000,0.87800000,0.10000000,-0.01000000,-0.08000000,-0.03829101,-0.14222786,-0.01440677,3.83000000,-28.42000000,-0.00000000
278,0,0.47300000,0.06300000,0.88100000,0.31000000,-0.12000000,0.00000000,-0.03798137,-0.14234772,-0.01440677,3.83000000,-28.42000000,-0.00000000
279,0,0.47700000,0.05900000,0.87800000,-0.16000000,-0.15000000,0.22000000,-0.03814183,-0.14249815,-0.01418614,3.83000000,-28.42000000,-0.00000000
280,0,0.47500000,0.06000000,0.87800000,-0.12000000,0.02000000,-0.08000000,-0.03827797,-0.14247546,-0.01427690,3.83000000,-28.42000000,-0.00000000
281,0,0.46900000,0.05400000,0.88000000,-0.22000000,-0.18000000,-0.16000000,-0.03849735,-0.14265495,-0.01443644,3.83000000,-28.42000000,-0.00000000
282,0,0.47600000,0.05800000,0.87900000,0.08000000,0.04000000,0.20000000,-0.03841634,-0.14261445,-0.01423391,3.83000000,-28.42000000,-0.00000000
283,0,0.47100000,0.05800000,0.87900000,0.03000000,-0.10000000,0.01000000,-0.03673424,-0.14822142,-0.01367321,3.83000000,-28.42000000,-0.00000000
284,0,0.47400000,0.05700000,0.88000000,-0.20000000,0.09000000,-0.24000000,-0.03694450,-0.14812680,-0.01392552,3.83000000,-28.42000000,-0.00000000
285,0,0.47100000,0.05700000,0.88200000,0.20000000,0.19000000,0.12000000,-0.03674411,-0.14793643,-0.01380529,3.83000000,-28.42000000,-0.00000000
286,0,0.47100000,0.06300000,0.88000000,-0.02000000,-0.01000000,0.07000000,-0.03676427,-0.14794651,-0.01373474,3.83000000,-28.41000000,-0.00000000
287,0,0.47700000,0.06100000,0.88100000,-0.11000000,-0.13000000,-0.22000000,-0.03688755,-0.14809220,-0.01398129,3.83000000,-28.41000000,-0.00000000
288,0,0.47700000,0.05800000,0.88100000,-0.16000000,0.02000000,0.05000000,-0.03706266,-0.14807031,-0.01392656,3.83000000,-28.41000000,-0.00000000
289,0,0.47700000,0.05500000,0.88300000,-0.17000000,-0.18000000,-0.06000000,-0.04646080,-0.15802128,-0.01724355,3.83000000,-28.42000000,-0.00000000
290,0,0.47900000,0.05600000,0.88200000,0.10000000,-0.07000000,-0.03000000,-0.04635688,-0.15809402,-0.01727473,3.83000000,-28.42000000,-0.00000000
291,0,0.47600000,0.05400000,0.87600000,-0.12000000,-0.19000000,-0.06000000,-0.04647720,-0.15828453,-0.01733489,3.83000000,-28.42000000,-0.00000000
292,0,0.47200000,0.06100000,0.87700000,-0.18000000,-0.02000000,0.05000000,-0.04665502,-0.15830428,-0.01728549,3.83000000,-28.42000000,-0.00000000
293,0,0.47300000,0.06400000,0.87500000,-0.01000000,-0.24000000,-0.18000000,-0.04666497,-0.15854315,-0.01746464,3.83000000,-28.42000000,-0.00000000
294,0,0.47800000,0.06200000,0.87400000,-0.06000000,-0.22000000,-0.02000000,-0.04672434,-0.15876084,-0.01748443,3.83000000,-28.42000000,-0.00000000
295,0,0.47600000,0.05800000,0.88000000,-0.01000000,0.17000000,0.23000000,-0.04728164,-0.14928675,-0.00466654,3.83000000,-28.42000000,-0.00000000
296,0,0.47700000,0.05600000,0.87500000,-0.13000000,0.12000000,0.05000000,-0.04742426,-0.14915510,-0.00461169,3.83000000,-28.42000000,-0.00000000
297,0,0.46800000,0.05800000,0.88300000,-0.09000000,0.06000000,0.07000000,-0.04752111,-0.14909054,-0.00453636,3.83000000,-28.42000000,-0.00000000
298,0,0.47800000,0.06000000,0.88000000,0.01000000,0.15000000,0.16000000,-0.04751053,-0.14893184,-0.00436709,3.83000000,-28.41000000,-0.00000000
299,0,0.47700000,0.06000000,0.87700000,-0.09000000,-0.27000000,-0.10000000,-0.04760244,-0.14920758,-0.00446921,3.83000000,-28.42000000,-0.00000000
300,0,0.47600000,0.05900000,0.87900000,-0.27000000,0.21000000,0.19000000,-0.04787367,-0.14899662,-0.00427834,3.83000000,-28.42000000,-0.00000000
301,0,0.47600000,0.05500000,0.87400000,0.06000000,0.16000000,0.11000000,-0.04449131,-0.13997698,0.00192266,3.83000000,-28.42000000,-0.00000000
302,0,0.47400000,0.06000000,0.87900000,0.02000000,-0.30000000,0.11000000,-0.04446576,-0.14036025,0.00206319,3.83000000,-28.42000000,-0.00000000
303,0,0.47600000,0.06200000,0.87800000,0.24000000,-0.01000000,0.26000000,-0.04417276,-0.14037246,0.00238060,3.83000000,-28.42000000,-0.01000000
304,0,0.47200000,0.05800000,0.87900000,0.01000000,-0.31000000,-0.08000000,-0.04416056,-0.14075068,0.00228299,3.83000000,-28.41000000,-0.01000000
305,0,0.47500000,0.05800000,0.88000000,0.03000000,0.15000000,-0.05000000,-0.04412316,-0.14056366,0.00222065,3.83000000,-28.41000000,-0.01000000
306,0,0.47200000,0.06000000,0.88300000,-0.13000000,0.04000000,-0.11000000,-0.04428434,-0.14051407,0.00208426,3.83000000,-28.41000000,-0.01000000
307,0,0.48000000,0.05400000,0.87600000,-0.17000000,0.04000000,0.09000000,-0.05363040,-0.13831500,0.00703218,3.83000000,-28.41000000,-0.01000000
308,0,0.47700000,0.06100000,0.87700000,0.07000000,0.12000000,-0.02000000,-0.05352348,-0.13813171,0.00700163,3.83000000,-28.41000000,-0.01000000
309,0,0.47400000,0.06000000,0.88100000,0.05000000,0.15000000,0.09000000,-0.05345263,-0.13791915,0.00712916,3.83000000,-28.41000000,-0.01000000
310,0,0.47500000,0.06000000,0.87600000,0.08000000,-0.04000000,0.24000000,-0.05334045,-0.13797524,0.00746570,3.83000000,-28.41000000,-0.00000000
311,0,0.47400000,0.06500000,0.88000000,-0.03000000,0.06000000,-0.02000000,-0.05338175,-0.13789264,0.00743816,3.83000000,-28.41000000,-0.00000000
312,0,0.47300000,0.05900000,0.87500000,-0.01000000,-0.30000000,0.00000000,-0.05339606,-0.13832175,0.00743816,3.83000000,-28.41000000,-0.01000000
313,0,0.47500000,0.06200000,0.87400000,-0.00000000,-0.16000000,-0.27000000,-0.05339606,-0.14683476,-0.00692754,3.83000000,-28.41000000,-0.01000000
314,0,0.47200000,0.05600000,0.87600000,0.07000000,-0.01000000,-0.11000000,-0.05329344,-0.14684942,-0.00708879,3.83000000,-28.41000000,-0.01000000
315,0,0.47200000,0.06200000,0.87700000,-0.13000000,-0.37000000,0.12000000,-0.05352929,-0.14752069,-0.00687108,3.83000000,-28.41000000,-0.01000000
316,0,0.47600000,0.05700000,0.87900000,-0.02000000,-0.03000000,-0.06000000,-0.05355846,-0.14756443,-0.00695858,3.83000000,-28.41000000,-0.01000000
317,0,0.47300000,0.06000000,0.87700000,-0.29000000,-0.05000000,-0.12000000,-0.05397458,-0.14763618,-0.00713077,3.83000000,-28.41000000,-0.01000000
318,0,0.47500000,0.05900000,0.87300000,0.12000000,0.16000000,-0.03000000,-0.05379885,-0.14740186,-0.00717470,3.83000000,-28.41000000,-0.01000000
319,0,0.47600000,0.06000000,0.87700000,0.11000000,0.09000000,0.02000000,-0.04792504,-0.14259602,-0.00610673,3.83000000,-28.41000000,-0.01000000
320,0,0.47200000,0.05600000,0.87700000,0.14000000,0.08000000,-0.30000000,-0.04774365,-0.14249237,-0.00649544,3.83000000,-28.41000000,-0.01000000
321,0,0.47600000,0.05600000,0.87900000,-0.08000000,0.10000000,0.09000000,-0.04784253,-0.14236876,-0.00638419,3.83000000,-28.41000000,-0.01000000
322,0,0.47400000,0.05400000,0.87900000,0.28000000,-0.06000000,-0.05000000,-0.04749363,-0.14244353,-0.00644649,3.83000000,-28.41000000,-0.01000000
323,0,0.47300000,0.05800000,0.87600000,0.16000000,-0.11000000,-0.04000000,-0.04728037,-0.14259014,-0.00649981,3.83000000,-28.41000000,-0.01000000
324,0,0.47400000,0.05800000,0.87500000,-0.04000000,-0.12000000,-0.13000000,-0.04733051,-0.14274056,-0.00666276,3.83000000,-28.41000000,-0.01000000
325,0,0.47400000,0.06200000,0.88200000,-0.08000000,-0.02000000,0.13000000,-0.05166623,-0.14382449,0.00038278,3.83000000,-28.41000000,-0.01000000
326,0,0.47400000,0.05800000,0.87800000,0.21000000,0.03000000,0.05000000,-0.05139759,-0.14378611,0.00044674,3.83000000,-28.41000000,-0.01000000
327,0,0.47200000,0.05800000,0.87900000,0.10000000,-0.18000000,0.01000000,-0.05127556,-0.14400577,0.00045895,3.83000000,-28.41000000,-0.01000000
328,0,0.47000000,0.05600000,0.87500000,0.07000000,0.09000000,0.05000000,-0.05118868,-0.14389407,0.00052100,3.83000000,-28.40000000,-0.01000000
329,0,0.47400000,0.05500000,0.87600000,0.19000000,0.16000000,-0.03000000,-0.05095496,-0.14369726,0.00048410,3.83000000,-28.40000000,-0.01000000
330,0,0.47500000,0.05900000,0.88200000,0.10000000,-0.20000000,0.05000000,-0.05083269,-0.14394180,0.00054523,3.83000000,-28.40000000,-0.01000000
331,0,0.47900000,0.06100000,0.88000000,0.15000000,-0.09000000,-0.17000000,-0.04251772,-0.14893078,-0.00887840,3.83000000,-28.40000000,-0.01000000
332,0,0.46600000,0.05900000,0.87900000,0.10000000,-0.09000000,-0.05000000,-0.04237640,-0.14905797,-0.00894906,3.83000000,-28.40000000,-0.01000000
333,0,0.47100000,0.06000000,0.88000000,0.02000000,-0.03000000,0.20000000,-0.04234385,-0.14910680,-0.00862355,3.83000000,-28.40000000,-0.01000000
334,0,0.47600000,0.05700000,0.87900000,-0.09000000,-0.10000000,-0.12000000,-0.04246973,-0.14924666,-0.00879139,3.83000000,-28.40000000,-0.01000000
335,0,0.47100000,0.05600000,0.87400000,0.15000000,-0.24000000,0.23000000,-0.04224048,-0.14961347,-0.00843987,3.83000000,-28.40000000,-0.01000000
336,0,0.47300000,0.05800000,0.87900000,-0.12000000,0.04000000,-0.05000000,-0.04240860,-0.14955743,-0.00850992,3.83000000,-28.40000000,-0.01000000
337,0,0.47700000,0.05900000,0.87800000,0.07000000,-0.20000000,0.03000000,-0.03866694,-0.16024790,-0.00690635,3.83000000,-28.40000000,-0.01000000
338,0,0.47400000,0.05800000,0.87900000,-0.08000000,0.02000000,-0.09000000,-0.03877936,-0.16021979,-0.00703283,3.83000000,-28.40000000,-0.01000000
339,0,0.47400000,0.05700000,0.88000000,-0.01000000,-0.07000000,-0.13000000,-0.03879287,-0.16031431,-0.00720837,3.83000000,-28.40000000,-0.01000000
340,0,0.47000000,0.05600000,0.88000000,-0.09000000,0.07000000,-0.03000000,-0.03891089,-0.16022252,-0.00724771,3.83000000,-28.40000000,-0.01000000
341,0,0.47400000,0.05700000,0.87900000,-0.07000000,-0.42000000,0.01000000,-0.03900166,-0.16076710,-0.00723474,3.83000000,-28.40000000,-0.01000000
342,0,0.47900000,0.06300000,0.87700000,-0.12000000,-0.11000000,0.04000000,-0.03916317,-0.16091515,-0.00718090,3.83000000,-28.40000000,-0.01000000
343,0,0.47300000,0.05900000,0.87800000,0.11000000,0.06000000,0.06000000,-0.03327568,-0.15770379,-0.00396954,3.83000000,-28.40000000,-0.01000000
344,0,0.47500000,0.06200000,0.87800000,0.15000000,0.03000000,0.04000000,-0.03306420,-0.15766150,-0.00391315,3.83000000,-28.40000000,-0.01000000
345,0,0.47800000,0.06100000,0.87600000,-0.00000000,-0.11000000,0.05000000,-0.03306420,-0.15781068,-0.00384534,3.83000000,-28.40000000,-0.01000000
346,0,0.47600000,0.05400000,0.87400000,0.13000000,-0.27000000,-0.01000000,-0.03289223,-0.15816785,-0.00385856,3.83000000,-28.40000000,-0.01000000
347,0,0.47200000,0.06100000,0.87800000,0.19000000,0.19000000,0.01000000,-0.03264415,-0.15791977,-0.00384551,3.83000000,-28.40000000,-0.01000000
348,0,0.48000000,0.05900000,0.88000000,0.20000000,0.03000000,-0.01000000,-0.03237352,-0.15787918,-0.00385904,3.83000000,-28.40000000,-0.01000000
349,0,0.47400000,0.05800000,0.87800000,-0.02000000,0.12000000,-0.05000000,-0.03345522,-0.15138896,-0.00656329,3.83000000,-28.40000000,-0.01000000
350,0,0.47200000,0.05700000,0.87500000,0.16000000,-0.11000000,0.11000000,-0.03324193,-0.15153560,-0.00641665,3.83000000,-28.40000000,-0.01000000
351,0,0.47200000,0.05700000,0.88200000,-0.01000000,0.01000000,0.13000000,-0.03325459,-0.15152294,-0.00625206,3.83000000,-28.40000000,-0.01000000
352,0,0.47600000,0.06200000,0.87900000,-0.16000000,-0.08000000,-0.31000000,-0.03346037,-0.15162583,-0.00665076,3.83000000,-28.40000000,-0.01000000
353,0,0.47500000,0.06000000,0.88100000,-0.06000000,0.11000000,0.10000000,-0.03353428,-0.15149034,-0.00652758,3.83000000,-28.40000000,-0.01000000
354,0,0.47400000,0.05800000,0.87600000,-0.22000000,-0.23000000,-0.02000000,-0.03380700,-0.15177546,-0.00655238,3.83000000,-28.40000000,-0.01000000
355,0,0.47100000,0.05900000,0.88200000,0.03000000,0.22000000,0.01000000,-0.03216073,-0.13970280,-0.00600362,3.83000000,-28.40000000,-0.01000000
356,0,0.47400000,0.05800000,0.87900000,-0.01000000,-0.00000000,0.00000000,-0.03217370,-0.13970280,-0.00600362,3.83000000,-28.40000000,-0.01000000
357,0,0.47500000,0.05900000,0.88100000,-0.08000000,-0.12000000,0.20000000,-0.03227348,-0.13985247,-0.00575416,3.83000000,-28.40000000,-0.01000000
358,0,0.47400000,0.05700000,0.87900000,0.10000000,-0.08000000,0.23000000,-0.03215111,-0.13995036,-0.00547272,3.83000000,-28.40000000,-0.01000000
359,0,0.47200000,0.06100000,0.87700000,-0.25000000,-0.00000000,-0.23000000,-0.03245685,-0.13995036,-0.00575400,3.83000000,-28.40000000,-0.01000000
360,0,0.47200000,0.05800000,0.87900000,0.14000000,-0.29000000,0.24000000,-0.03228003,-0.14031664,-0.00545088,3.83000000,-28.40000000,-0.01000000
361,0,0.47400000,0.06100000,0.88200000,-0.21000000,-0.14000000,-0.11000000,-0.04371846,-0.14794226,-0.01144244,3.83000000,-28.40000000,-0.01000000
362,0,0.47000000,0.06100000,0.87700000,-0.02000000,-0.06000000,0.04000000,-0.04374866,-0.14803283,-0.01138206,3.83000000,-28.40000000,-0.01000000
363,0,0.47400000,0.05400000,0.87800000,0.11000000,-0.01000000,0.03000000,-0.04356320,-0.14804969,-0.01133148,3.83000000,-28.40000000,-0.01000000
364,0,0.47400000,0.05600000,0.88100000,0.03000000,-0.15000000,-0.11000000,-0.04351987,-0.14826632,-0.01149034,3.83000000,-28.40000000,-0.01000000
365,0,0.47300000,0.05800000,0.88500000,-0.22000000,-0.36000000,0.13000000,-0.04383482,-0.14878169,-0.01130424,3.83000000,-28.40000000,-0.01000000
366,0,0.47600000,0.06100000,0.87800000,0.04000000,-0.29000000,-0.07000000,-0.04377676,-0.14920258,-0.01140583,3.83000000,-28.40000000,-0.01000000
367,0,0.47500000,0.05700000,0.87900000,0.04000000,0.09000000,-0.04000000,-0.04161822,-0.14434586,-0.01356437,3.83000000,-28.40000000,-0.01000000
368,0,0.46600000,0.06100000,0.87800000,-0.06000000,-0.13000000,-0.07000000,-0.04169880,-0.14452044,-0.01365838,3.83000000,-28.40000000,-0.01000000
369,0,0.47600000,0.06100000,0.87700000,-0.13000000,0.04000000,-0.04000000,-0.04186082,-0.14447058,-0.01370823,3.83000000,-28.40000000,-0.01000000
370,0,0.47200000,0.06300000,0.87900000,-0.03000000,0.43000000,-0.03000000,-0.04189815,-0.14393549,-0.01374556,3.83000000,-28.39000000,-0.01000000
371,0,0.47500000,0.05700000,0.88000000,-0.09000000,-0.01000000,0.14000000,-0.04200912,-0.14394782,-0.01357295,3.83000000,-28.39000000,-0.01000000
372,0,0.47800000,0.05900000,0.88000000,-0.12000000,-0.11000000,-0.05000000,-0.04215919,-0.14408538,-0.01363548,3.83000000,-28.39000000,-0.01000000
373,0,0.47300000,0.05800000,0.88100000,0.08000000,-0.06000000,-0.12000000,-0.03781514,-0.14734342,-0.02015155,3.83000000,-28.39000000,-0.01000000
374,0,0.47200000,0.05600000,0.88000000,0.07000000,-0.17000000,-0.13000000,-0.03772132,-0.14757127,-0.02032579,3.83000000,-28.39000000,-0.01000000
375,0,0.47800000,0.06200000,0.87500000,0.06000000,-0.13000000,-0.10000000,-0.03764677,-0.14773279,-0.02045004,3.83000000,-28.39000000,-0.01000000
376,0,0.47500000,0.06400000,0.87600000,-0.01000000,0.19000000,-0.00000000,-0.03765918,-0.14749694,-0.02045004,3.83000000,-28.39000000,-0.01000000
377,0,0.47500000,0.06000000,0.87900000,-0.01000000,0.07000000,0.06000000,-0.03767150,-0.14741073,-0.02037614,3.83000000,-28.39000000,-0.02000000
378,0,0.47700000,0.06000000,0.88100000,-0.15000000,0.09000000,0.01000000,-0.03785666,-0.14729964,-0.02036380,3.83000000,-28.39000000,-0.02000000
379,0,0.47600000,0.06100000,0.87700000,0.04000000,-0.03000000,0.03000000,-0.03569085,-0.14892399,-0.01873944,3.83000000,-28.39000000,-0.01000000
380,0,0.47900000,0.05600000,0.88100000,0.12000000,0.02000000,0.10000000,-0.03552793,-0.14889684,-0.01860368,3.83000000,-28.39000000,-0.01000000
381,0,0.47500000,0.06300000,0.87600000,0.07000000,0.05000000,-0.11000000,-0.03543289,-0.14882896,-0.01875302,3.83000000,-28.39000000,-0.01000000
382,0,0.47600000,0.06000000,0.87900000,-0.07000000,-0.21000000,-0.17000000,-0.03552336,-0.14910035,-0.01897272,3.83000000,-28.39000000,-0.01000000
383,0,0.47800000,0.06000000,0.87800000,0.02000000,0.00000000,-0.16000000,-0.03549742,-0.14910035,-0.01918018,3.83000000,-28.39000000,-0.02000000
384,0,0.47800000,0.06100000,0.87900000,0.12000000,-0.08000000,0.14000000,-0.03534154,-0.14920427,-0.01899832,3.83000000,-28.39000000,-0.02000000
385,0,0.47300000,0.06000000,0.87900000,-0.12000000,-0.17000000,0.15000000,-0.04185264,-0.15842833,-0.01085944,3.83000000,-28.39000000,-0.02000000
386,0,0.47400000,0.06300000,0.88000000,0.04000000,-0.02000000,-0.11000000,-0.04179674,-0.15845628,-0.01101316,3.83000000,-28.39000000,-0.01000000
387,0,0.47100000,0.06000000,0.87500000,0.08000000,0.06000000,0.03000000,-0.04169233,-0.15837796,-0.01097401,3.84000000,-28.39000000,-0.02000000
388,0,0.47200000,0.06000000,0.87900000,-0.08000000,-0.18000000,-0.02000000,-0.04179638,-0.15861209,-0.01100002,3.84000000,-28.39000000,-0.02000000
389,0,0.46900000,0.06100000,0.87700000,0.08000000,-0.14000000,-0.11000000,-0.04169260,-0.15879371,-0.01114273,3.83000000,-28.39000000,-0.02000000
390,0,0.47800000,0.05800000,0.87600000,0.05000000,-0.05000000,-0.08000000,-0.04162745,-0.15885885,-0.01124695,3.84000000,-28.39000000,-0.02000000
391,0,0.47300000,0.05700000,0.87600000,-0.08000000,0.10000000,0.01000000,-0.04599388,-0.15340082,-0.01070115,3.84000000,-28.39000000,-0.02000000
392,0,0.47200000,0.06200000,0.87900000,0.16000000,0.09000000,0.08000000,-0.04576597,-0.15327263,-0.01058720,3.84000000,-28.39000000,-0.02000000
393,0,0.47400000,0.06100000,0.87700000,0.12000000,-0.17000000,-0.05000000,-0.04560231,-0.15350448,-0.01065539,3.84000000,-28.39000000,-0.02000000
394,0,0.47500000,0.05800000,0.88000000,0.14000000,-0.03000000,0.04000000,-0.04541074,-0.15354553,-0.01060066,3.84000000,-28.39000000,-0.02000000
395,0,0.47100000,0.06000000,0.87500000,0.13000000,-0.19000000,-0.00000000,-0.04523365,-0.15380435,-0.01060066,3.84000000,-28.39000000,-0.02000000
396,0,0.47000000,0.06000000,0.88000000,0.10000000,-0.09000000,0.07000000,-0.04509717,-0.15392718,-0.01050512,3.84000000,-28.39000000,-0.02000000
397,0,0.47300000,0.05900000,0.87700000,0.00000000,-0.23000000,-0.28000000,-0.04509717,-0.16696371,-0.02637567,3.84000000,-28.39000000,-0.02000000
398,0,0.47400000,0.05700000,0.87600000,-0.10000000,-0.04000000,-0.03000000,-0.04524061,-0.16702108,-0.02641870,3.84000000,-28.39000000,-0.02000000
399,0,0.47700000,0.06100000,0.87600000,-0.16000000,-0.16000000,0.01000000,-0.04545936,-0.16723983,-0.02640503,3.84000000,-28.39000000,-0.02000000
400,0,0.47400000,0.06100000,0.88100000,-0.18000000,-0.08000000,0.04000000,-0.04570464,-0.16734885,-0.02635052,3.84000000,-28.39000000,-0.02000000
401,0,0.46900000,0.05900000,0.87900000,-0.06000000,-0.12000000,-0.00000000,-0.04579540,-0.16753036,-0.02635052,3.84000000,-28.39000000,-0.02000000
402,0,0.47700000,0.05700000,0.87400000,0.07000000,-0.14000000,-0.01000000,-0.04569105,-0.16773906,-0.02636543,3.85000000,-28.39000000,-0.02000000
403,0,0.47200000,0.06000000,0.87700000,-0.01000000,0.12000000,0.17000000,-0.04570549,-0.16756581,-0.02612000,3.85000000,-28.39000000,-0.02000000
404,0,0.47000000,0.06300000,0.88000000,0.06000000,-0.10000000,0.01000000,-0.04248832,-0.17292776,-0.02558380,3.85000000,-28.38000000,-0.02000000
405,0,0.47400000,0.06500000,0.88000000,0.17000000,0.07000000,-0.08000000,-0.04223677,-0.17282418,-0.02570218,3.85000000,-28.38000000,-0.02000000
406,0,0.47200000,0.05700000,0.88100000,0.09000000,-0.02000000,-0.00000000,-0.04211293,-0.17285170,-0.02570218,3.85000000,-28.38000000,-0.02000000
407,0,0.47100000,0.05800000,0.87600000,-0.01000000,-0.01000000,-0.02000000,-0.04212670,-0.17286548,-0.02572974,3.85000000,-28.38000000,-0.02000000
408,0,0.46900000,0.06000000,0.88000000,-0.21000000,-0.01000000,-0.14000000,-0.04241872,-0.17287938,-0.02592441,3.85000000,-28.38000000,-0.02000000
409,0,0.47700000,0.06100000,0.88300000,0.08000000,-0.05000000,0.12000000,-0.04230006,-0.17295355,-0.02574642,3.85000000,-28.38000000,-0.02000000
410,0,0.47600000,0.05900000,0.88000000,-0.12000000,-0.25000000,0.06000000,-0.04879219,-0.18647882,-0.02250035,3.85000000,-28.38000000,-0.02000000
411,0,0.47900000,0.06100000,0.87500000,0.00000000,-0.03000000,0.14000000,-0.04879219,-0.18652095,-0.02230374,3.85000000,-28.38000000,-0.02000000
412,0,0.47700000,0.06600000,0.88200000,-0.21000000,0.31000000,-0.18000000,-0.04907279,-0.18610673,-0.02254425,3.85000000,-28.38000000,-0.02000000
413,0,0.47200000,0.06200000,0.88000000,0.06000000,-0.32000000,-0.08000000,-0.04899315,-0.18653149,-0.02265044,3.85000000,-28.38000000,-0.02000000
414,0,0.47000000,0.06100000,0.87600000,0.31000000,0.08000000,0.05000000,-0.04859112,-0.18642774,-0.02258560,3.85000000,-28.38000000,-0.02000000
415,0,0.47300000,0.05800000,0.87700000,-0.04000000,-0.30000000,0.04000000,-0.04864531,-0.18683418,-0.02253141,3.85000000,-28.38000000,-0.02000000
416,0,0.47200000,0.06200000,0.87600000,-0.01000000,-0.14000000,0.06000000,-0.04918266,-0.19435703,-0.01930733,3.85000000,-28.38000000,-0.02000000
417,0,0.47300000,0.05400000,0.88300000,0.15000000,-0.02000000,0.01000000,-0.04897926,-0.19438415,-0.01929377,3.85000000,-28.38000000,-0.02000000
418,0,0.47700000,0.05800000,0.87900000,-0.05000000,-0.08000000,0.06000000,-0.04904423,-0.19448811,-0.01921580,3.85000000,-28.38000000,-0.02000000
419,0,0.47500000,0.05300000,0.88000000,0.03000000,-0.20000000,0.07000000,-0.04900486,-0.19475058,-0.01912394,3.85000000,-28.38000000,-0.02000000
420,0,0.46900000,0.06300000,0.87700000,-0.07000000,-0.14000000,-0.01000000,-0.04909816,-0.19493718,-0.01913726,3.85000000,-28.38000000,-0.02000000
421,0,0.47300000,0.05900000,0.88400000,-0.17000000,0.03000000,0.10000000,-0.04932516,-0.19489713,-0.01900374,3.85000000,-28.38000000,-0.02000000
422,0,0.46900000,0.06200000,0.87700000,0.17000000,0.12000000,0.18000000,-0.04009867,-0.18838431,-0.00923452,3.85000000,-28.38000000,-0.02000000
423,0,0.46800000,0.06200000,0.87800000,-0.10000000,-0.02000000,0.10000000,-0.04023896,-0.18841237,-0.00909422,3.85000000,-28.38000000,-0.02000000
424,0,0.46800000,0.05800000,0.87800000,-0.11000000,-0.03000000,0.05000000,-0.04038516,-0.18845224,-0.00902777,3.85000000,-28.38000000,-0.02000000
425,0,0.47500000,0.06200000,0.87900000,-0.01000000,-0.00000000,-0.04000000,-0.04039819,-0.18845224,-0.00907991,3.85000000,-28.38000000,-0.02000000
426,0,0.47600000,0.06100000,0.87800000,0.06000000,-0.04000000,0.05000000,-0.04032017,-0.18850426,-0.00901489,3.85000000,-28.38000000,-0.02000000
427,0,0.47100000,0.06000000,0.88100000,-0.10000000,-0.07000000,0.15000000,-0.04045245,-0.18859686,-0.00881646,3.85000000,-28.38000000,-0.02000000
428,0,0.47300000,0.06000000,0.87800000,-0.21000000,-0.03000000,-0.01000000,-0.05189995,-0.19023221,-0.00936158,3.85000000,-28.38000000,-0.02000000
429,0,0.47300000,0.05700000,0.88200000,-0.11000000,-0.21000000,-0.06000000,-0.05204913,-0.19051702,-0.00944295,3.85000000,-28.38000000,-0.02000000
430,0,0.46900000,0.05900000,0.87600000,0.04000000,-0.31000000,-0.11000000,-0.05199642,-0.19092555,-0.00958791,3.85000000,-28.38000000,-0.02000000
431,0,0.47400000,0.06100000,0.87600000,0.13000000,-0.02000000,-0.07000000,-0.05182761,-0.19095152,-0.00967881,3.85000000,-28.38000000,-0.02000000
432,0,0.46900000,0.05900000,0.87700000,-0.10000000,-0.11000000,0.02000000,-0.05195799,-0.19109494,-0.00965274,3.85000000,-28.38000000,-0.02000000
433,0,0.47400000,0.06100000,0.87600000,-0.04000000,0.09000000,-0.16000000,-0.05201555,-0.19096543,-0.00988297,3.85000000,-28.37000000,-0.02000000
434,0,0.46900000,0.06200000,0.87800000,-0.04000000,0.11000000,0.03000000,-0.05416897,-0.18504353,-0.00826790,3.85000000,-28.37000000,-0.02000000
435,0,0.47600000,0.06200000,0.87400000,-0.16000000,-0.23000000,-0.04000000,-0.05438917,-0.18536007,-0.00832296,3.85000000,-28.37000000,-0.02000000
436,0,0.47500000,0.06000000,0.88200000,-0.15000000,0.26000000,-0.08000000,-0.05460562,-0.18498488,-0.00843840,3.85000000,-28.37000000,-0.02000000
437,0,0.47100000,0.06000000,0.87900000,-0.15000000,-0.11000000,0.07000000,-0.05484263,-0.18515870,-0.00832779,3.85000000,-28.37000000,-0.02000000
438,0,0.47100000,0.05600000,0.87800000,0.06000000,-0.06000000,-0.18000000,-0.05475333,-0.18524799,-0.00859568,3.85000000,-28.37000000,-0.02000000
439,0,0.47000000,0.06000000,0.87500000,0.09000000,-0.10000000,-0.14000000,-0.05462424,-0.18539144,-0.00879650,3.85000000,-28.37000000,-0.02000000
440,0,0.47300000,0.06100000,0.87700000,-0.12000000,0.02000000,-0.12000000,-0.06113596,-0.18430615,-0.01530823,3.85000000,-28.37000000,-0.02000000
441,0,0.47300000,0.05900000,0.88100000,0.02000000,-0.03000000,0.28000000,-0.06110873,-0.18434701,-0.01492689,3.85000000,-28.37000000,-0.02000000
442,0,0.47000000,0.06100000,0.87600000,0.04000000,0.23000000,0.11000000,-0.06105809,-0.18405586,-0.01478764,3.85000000,-28.37000000,-0.02000000
443,0,0.48000000,0.06600000,0.87700000,-0.14000000,-0.03000000,0.01000000,-0.06123124,-0.18409296,-0.01477528,3.85000000,-28.37000000,-0.02000000
444,0,0.47700000,0.05900000,0.87800000,-0.04000000,-0.01000000,0.03000000,-0.06128070,-0.18410533,-0.01473818,3.85000000,-28.37000000,-0.02000000
445,0,0.47500000,0.06200000,0.88100000,-0.09000000,-0.04000000,-0.05000000,-0.06139274,-0.18415512,-0.01480042,3.85000000,-28.37000000,-0.02000000
446,0,0.47200000,0.05800000,0.87800000,-0.17000000,0.14000000,-0.36000000,-0.07063925,-0.17654035,-0.03438127,3.85000000,-28.37000000,-0.03000000
447,0,0.47300000,0.06200000,0.87900000,0.09000000,-0.09000000,0.05000000,-0.07006948,-0.17711012,-0.03406473,3.85000000,-28.37000000,-0.02000000
448,0,0.47000000,0.05400000,0.87600000,-0.15000000,0.10000000,0.00000000,-0.07033221,-0.17693497,-0.03406473,3.85000000,-28.37000000,-0.02000000
449,0,0.47100000,0.05900000,0.87800000,-0.26000000,-0.08000000,0.12000000,-0.07071644,-0.17705320,-0.03388739,3.85000000,-28.37000000,-0.02000000
450,0,0.47300000,0.06200000,0.88200000,0.00000000,0.22000000,-0.03000000,-0.07071644,-0.17594984,-0.03403785,3.85000000,-28.36000000,-0.02000000
451,0,0.47500000,0.06300000,0.88100000,-0.26000000,0.24000000,-0.08000000,-0.07104798,-0.17564380,-0.03413986,3.85000000,-28.36000000,-0.02000000
452,0,0.47000000,0.06200000,0.87900000,-0.06000000,-0.27000000,0.06000000,-0.07371177,-0.18763086,-0.03147607,3.85000000,-28.36000000,-0.02000000
453,0,0.47200000,0.05500000,0.87600000,-0.17000000,-0.03000000,-0.13000000,-0.07392041,-0.18766768,-0.03163561,3.85000000,-28.36000000,-0.02000000
454,0,0.47400000,0.05800000,0.87900000,-0.18000000,0.03000000,-0.05000000,-0.07412517,-0.18763355,-0.03169249,3.85000000,-28.36000000,-0.02000000
455,0,0.47500000,0.06400000,0.88000000,-0.13000000,0.16000000,0.20000000,-0.07427793,-0.18744554,-0.03145749,3.85000000,-28.36000000,-0.02000000
456,0,0.47100000,0.05600000,0.87500000,0.16000000,0.05000000,-0.22000000,-0.07388053,-0.18732136,-0.03200390,3.85000000,-28.36000000,-0.02000000
457,0,0.47300000,0.05800000,0.88400000,-0.02000000,0.03000000,0.07000000,-0.07390617,-0.18728290,-0.03191418,3.85000000,-28.36000000,-0.02000000
458,0,0.47100000,0.05900000,0.87700000,0.09000000,-0.12000000,-0.19000000,-0.06884406,-0.19403238,-0.04260085,3.85000000,-28.36000000,-0.02000000
459,0,0.47300000,0.05700000,0.88000000,-0.24000000,0.04000000,-0.10000000,-0.06970113,-0.19388954,-0.04295797,3.85000000,-28.36000000,-0.02000000
460,0,0.47000000,0.05900000,0.88000000,-0.11000000,0.14000000,0.06000000,-0.07015701,-0.19330934,-0.04270931,3.85000000,-28.36000000,-0.02000000
461,0,0.47100000,0.05500000,0.87800000,-0.05000000,-0.10000000,-0.02000000,-0.07023217,-0.19345967,-0.04273937,3.85000000,-28.36000000,-0.03000000
462,0,0.47300000,0.06200000,0.88000000,-0.10000000,-0.01000000,0.26000000,-0.07069166,-0.19350562,-0.04154470,3.85000000,-28.36000000,-0.03000000
463,0,0.47700000,0.05800000,0.88100000,0.19000000,0.13000000,-0.24000000,-0.07045156,-0.19334134,-0.04184799,3.85000000,-28.36000000,-0.03000000
464,0,0.47300000,0.06300000,0.87800000,0.25000000,0.05000000,-0.05000000,-0.05957940,-0.19116691,-0.04402242,3.85000000,-28.36000000,-0.03000000
465,0,0.46900000,0.06200000,0.87700000,-0.11000000,0.18000000,-0.18000000,-0.05970336,-0.19096407,-0.04422526,3.85000000,-28.36000000,-0.03000000
466,0,0.47200000,0.05500000,0.87800000,0.07000000,-0.13000000,-0.16000000,-0.05963257,-0.19109553,-0.04438706,3.85000000,-28.36000000,-0.03000000
467,0,0.47100000,0.05800000,0.87600000,0.12000000,-0.01000000,-0.15000000,-0.05951251,-0.19110553,-0.04453713,3.85000000,-28.36000000,-0.03000000
468,0,0.47600000,0.05800000,0.88100000,-0.05000000,-0.20000000,-0.16000000,-0.05956254,-0.19130564,-0.04469721,3.85000000,-28.36000000,-0.03000000
469,0,0.48100000,0.06000000,0.87700000,0.00000000,0.01000000,-0.01000000,-0.05956254,-0.19129557,-0.04470728,3.85000000,-28.36000000,-0.03000000
470,0,0.47300000,0.05900000,0.87800000,0.06000000,-0.02000000,-0.26000000,-0.05624134,-0.19240263,-0.05909913,3.85000000,-28.36000000,-0.03000000
471,0,0.47100000,0.05700000,0.88300000,0.10000000,-0.04000000,0.02000000,-0.05613402,-0.19244556,-0.05907767,3.85000000,-28.36000000,-0.03000000
472,0,0.47300000,0.05800000,0.87600000,0.09000000,-0.16000000,-0.01000000,-0.05604215,-0.19260888,-0.05908788,3.85000000,-28.36000000,-0.03000000
473,0,0.47500000,0.05800000,0.87800000,0.11000000,-0.01000000,-0.18000000,-0.05593162,-0.19261893,-0.05926874,3.86000000,-28.36000000,-0.03000000
474,0,0.46900000,0.05600000,0.87900000,0.10000000,-0.25000000,0.04000000,-0.05583160,-0.19286900,-0.05922873,3.86000000,-28.36000000,-0.03000000
475,0,0.47200000,0.06100000,0.88100000,-0.15000000,0.03000000,0.14000000,-0.05598367,-0.19283858,-0.05908679,3.86000000,-28.36000000,-0.03000000
476,0,0.47600000,0.05900000,0.88000000,-0.12000000,0.01000000,0.00000000,-0.06275064,-0.19227467,-0.05908679,3.86000000,-28.36000000,-0.03000000
477,0,0.47600000,0.05900000,0.88200000,-0.05000000,-0.11000000,-0.11000000,-0.06280361,-0.19239120,-0.05920332,3.86000000,-28.36000000,-0.03000000
478,0,0.47000000,0.06200000,0.88300000,-0.08000000,-0.01000000,0.00000000,-0.06288395,-0.19240125,-0.05920332,3.86000000,-28.35000000,-0.03000000
479,0,0.47300000,0.06200000,0.88200000,0.18000000,0.18000000,-0.10000000,-0.06270429,-0.19222158,-0.05930313,3.86000000,-28.35000000,-0.03000000
480,0,0.47400000,0.05800000,0.88000000,-0.22000000,0.04000000,0.01000000,-0.06292844,-0.19218083,-0.05929295,3.86000000,-28.35000000,-0.04000000
481,0,0.47500000,0.06200000,0.87600000,-0.00000000,0.09000000,0.02000000,-0.06292844,-0.19209063,-0.05927290,3.86000000,-28.35000000,-0.03000000
482,0,0.47200000,0.05600000,0.87600000,-0.29000000,-0.15000000,0.01000000,-0.07901483,-0.20041118,-0.05871820,3.86000000,-28.35000000,-0.03000000
483,0,0.47900000,0.06200000,0.87900000,-0.21000000,-0.10000000,-0.08000000,-0.07923450,-0.20051579,-0.05880188,3.86000000,-28.35000000,-0.03000000
484,0,0.47500000,0.05800000,0.88100000,-0.12000000,0.03000000,0.08000000,-0.07935396,-0.20048592,-0.05872224,3.86000000,-28.35000000,-0.03000000
485,0,0.47300000,0.05600000,0.87800000,-0.12000000,0.24000000,-0.10000000,-0.07947320,-0.20024746,-0.05882160,3.86000000,-28.35000000,-0.03000000
486,0,0.47400000,0.05900000,0.88000000,0.21000000,0.23000000,-0.04000000,-0.07925983,-0.20001378,-0.05886224,3.86000000,-28.35000000,-0.03000000
487,0,0.47000000,0.06000000,0.87900000,0.02000000,-0.20000000,0.02000000,-0.07923966,-0.20021555,-0.05884207,3.86000000,-28.35000000,-0.03000000
488,0,0.47100000,0.06300000,0.87100000,-0.17000000,0.17000000,-0.10000000,-0.08868761,-0.19076760,-0.06439968,3.86000000,-28.35000000,-0.03000000
489,0,0.47300000,0.06000000,0.87400000,-0.03000000,0.03000000,0.11000000,-0.08871863,-0.19073658,-0.06428596,3.86000000,-28.35000000,-0.03000000
490,0,0.47400000,0.05800000,0.88000000,0.00000000,0.15000000,-0.28000000,-0.08871863,-0.19058704,-0.06456510,3.86000000,-28.35000000,-0.03000000
491,0,0.46700000,0.05700000,0.87400000,0.21000000,0.08000000,0.15000000,-0.08851062,-0.19050780,-0.06441652,3.86000000,-28.35000000,-0.03000000
492,0,0.47300000,0.06000000,0.88100000,-0.10000000,0.12000000,0.08000000,-0.08861172,-0.19038648,-0.06433564,3.86000000,-28.35000000,-0.03000000
493,0,0.47000000,0.05700000,0.87900000,-0.11000000,0.02000000,0.07000000,-0.08872312,-0.19036623,-0.06426476,3.86000000,-28.35000000,-0.03000000
494,0,0.47100000,0.06200000,0.87800000,0.08000000,-0.02000000,0.00000000,-0.08420752,-0.19149513,-0.06426476,3.86000000,-28.35000000,-0.03000000
495,0,0.47400000,0.05600000,0.87800000,0.04000000,-0.27000000,0.20000000,-0.08416596,-0.19177563,-0.06405698,3.86000000,-28.35000000,-0.03000000
496,0,0.47800000,0.05600000,0.88100000,0.07000000,-0.07000000,0.12000000,-0.08409691,-0.19184468,-0.06393861,3.86000000,-28.35000000,-0.03000000
497,0,0.48100000,0.05900000,0.87600000,-0.12000000,-0.03000000,0.20000000,-0.08421880,-0.19187515,-0.06373545,3.86000000,-28.35000000,-0.03000000
498,0,0.47800000,0.06100000,0.87600000,0.09000000,-0.14000000,0.00000000,-0.08412824,-0.19201603,-0.06373545,3.86000000,-28.35000000,-0.04000000
499,0,0.47500000,0.06000000,0.87700000,0.22000000,-0.14000000,-0.02000000,-0.08390745,-0.19215653,-0.06375552,3.86000000,-28.35000000,-0.04000000
500,0,0.47000000,0.05700000,0.87900000,0.12000000,-0.15000000,-0.11000000,-0.07724740,-0.20048159,-0.06986057,3.86000000,-28.35000000,-0.04000000
501,0,0.47200000,0.06400000,0.87400000,-0.04000000,0.26000000,0.12000000,-0.07728898,-0.20021135,-0.06973584,3.86000000,-28.35000000,-0.04000000
502,0,0.47900000,0.06100000,0.88000000,-0.02000000,0.10000000,-0.15000000,-0.07730881,-0.20011218,-0.06988459,3.86000000,-28.35000000,-0.04000000
503,0,0.46800000,0.05900000,0.87600000,-0.27000000,0.09000000,-0.10000000,-0.07758011,-0.20002175,-0.06998507,3.86000000,-28.35000000,-0.04000000
504,0,0.47100000,0.05600000,0.87800000,-0.30000000,0.11000000,-0.15000000,-0.07787904,-0.19991214,-0.07013454,3.86000000,-28.35000000,-0.04000000
505,0,0.47200000,0.05900000,0.87900000,-0.17000000,0.22000000,-0.22000000,-0.07804824,-0.19969318,-0.07035350,3.86000000,-28.35000000,-0.04000000
506,0,0.47300000,0.06100000,0.87800000,0.15000000,0.07000000,-0.05000000,-0.06969064,-0.19579297,-0.07313937,3.86000000,-28.35000000,-0.04000000
507,0,0.47600000,0.05900000,0.87900000,0.20000000,-0.09000000,0.12000000,-0.06947900,-0.19588821,-0.07301238,3.86000000,-28.35000000,-0.04000000
508,0,0.47600000,0.06200000,0.88100000,0.01000000,0.16000000,-0.21000000,-0.06946849,-0.19572008,-0.07323305,3.86000000,-28.35000000,-0.04000000
509,0,0.47400000,0.06200000,0.87800000,-0.10000000,0.19000000,0.09000000,-0.06957436,-0.19551893,-0.07313777,3.86000000,-28.35000000,-0.04000000
510,0,0.47400000,0.05800000,0.87700000,-0.05000000,-0.06000000,-0.14000000,-0.06962851,-0.19558391,-0.07328939,3.86000000,-28.35000000,-0.04000000
511,0,0.47300000,0.05900000,0.87500000,0.06000000,0.12000000,0.08000000,-0.06952083,-0.19536855,-0.07314582,3.86000000,-28.35000000,-0.04000000
512,0,0.47600000,0.05600000,0.87700000,-0.23000000,0.19000000,-0.19000000,-0.08224851,-0.18485437,-0.08365999,3.86000000,-28.35000000,-0.04000000
513,0,0.47600000,0.06000000,0.87900000,-0.10000000,0.20000000,0.01000000,-0.08235371,-0.18464397,-0.08364947,3.86000000,-28.35000000,-0.04000000
514,0,0.46900000,0.05800000,0.87900000,0.03000000,-0.20000000,-0.22000000,-0.08232346,-0.18484564,-0.08387132,3.86000000,-28.35000000,-0.04000000
515,0,0.47200000,0.05700000,0.87600000,0.00000000,0.04000000,-0.00000000,-0.08232346,-0.18480582,-0.08387132,3.86000000,-28.35000000,-0.04000000
516,0,0.47500000,0.05800000,0.87900000,-0.17000000,0.03000000,0.20000000,-0.08249278,-0.18477595,-0.08367212,3.86000000,-28.35000000,-0.04000000
517,0,0.47300000,0.05600000,0.88200000,-0.03000000,-0.18000000,0.08000000,-0.08252272,-0.18495561,-0.08359227,3.86000000,-28.35000000,-0.04000000
518,0,0.46900000,0.05700000,0.87900000,0.01000000,0.11000000,-0.12000000,-0.08196779,-0.17885130,-0.09025151,3.86000000,-28.35000000,-0.04000000
519,0,0.47100000,0.06200000,0.87800000,-0.01000000,0.00000000,-0.05000000,-0.08197825,-0.17885130,-0.09030382,3.86000000,-28.34000000,-0.04000000
520,0,0.47100000,0.05900000,0.88100000,-0.07000000,0.28000000,-0.03000000,-0.08204840,-0.17857069,-0.09033388,3.86000000,-28.34000000,-0.04000000
521,0,0.47000000,0.06300000,0.87700000,-0.12000000,-0.20000000,0.14000000,-0.08216803,-0.17877008,-0.09019431,3.85000000,-28.34000000,-0.04000000
522,0,0.46900000,0.05900000,0.88000000,-0.08000000,-0.05000000,-0.07000000,-0.08224733,-0.17881964,-0.09026370,3.85000000,-28.34000000,-0.04000000
523,0,0.46900000,0.06000000,0.87500000,-0.08000000,-0.05000000,0.01000000,-0.08232655,-0.17886915,-0.09025379,3.85000000,-28.34000000,-0.04000000
524,0,0.47500000,0.05200000,0.87600000,0.02000000,-0.15000000,0.10000000,-0.08115586,-0.18764932,-0.08440034,3.85000000,-28.34000000,-0.04000000
525,0,0.47500000,0.06300000,0.87700000,-0.03000000,-0.16000000,0.37000000,-0.08118813,-0.18782142,-0.08400237,3.85000000,-28.34000000,-0.04000000
526,0,0.47200000,0.06100000,0.88100000,-0.08000000,-0.03000000,0.04000000,-0.08126923,-0.18785184,-0.08396181,3.85000000,-28.34000000,-0.03000000
527,0,0.46900000,0.06200000,0.87700000,0.25000000,-0.06000000,-0.03000000,-0.08101720,-0.18791233,-0.08399206,3.85000000,-28.34000000,-0.04000000
528,0,0.47200000,0.05900000,0.87700000,-0.01000000,-0.01000000,0.05000000,-0.08102712,-0.18792224,-0.08394247,3.85000000,-28.34000000,-0.04000000
529,0,0.47300000,0.06100000,0.88000000,-0.14000000,-0.17000000,0.13000000,-0.08116575,-0.18809059,-0.08381374,3.85000000,-28.34000000,-0.04000000
530,0,0.47300000,0.06000000,0.87500000,-0.03000000,-0.33000000,0.45000000,-0.08119617,-0.18842516,-0.08335751,3.85000000,-28.34000000,-0.03000000
531,0,0.47700000,0.06400000,0.87900000,0.22000000,-0.06000000,0.14000000,-0.06877790,-0.19181196,-0.07545497,3.85000000,-28.34000000,-0.04000000
532,0,0.47100000,0.05900000,0.88000000,-0.02000000,0.04000000,-0.22000000,-0.06880288,-0.19176201,-0.07572969,3.85000000,-28.34000000,-0.03000000
533,0,0.47300000,0.06100000,0.87700000,0.25000000,-0.05000000,0.11000000,-0.06854232,-0.19181412,-0.07561504,3.85000000,-28.34000000,-0.04000000
534,0,0.47800000,0.06000000,0.88100000,-0.03000000,-0.15000000,-0.16000000,-0.06857302,-0.19196763,-0.07577879,3.85000000,-28.34000000,-0.04000000
535,0,0.46800000,0.06000000,0.88000000,-0.10000000,-0.02000000,-0.09000000,-0.06867393,-0.19198781,-0.07586960,3.85000000,-28.34000000,-0.04000000
536,0,0.47500000,0.06000000,0.87600000,-0.06000000,-0.07000000,0.15000000,-0.06873484,-0.19205887,-0.07571735,3.85000000,-28.34000000,-0.04000000
537,0,0.46900000,0.05500000,0.87600000,0.17000000,-0.21000000,0.06000000,-0.05934573,-0.20365717,-0.07240355,3.85000000,-28.34000000,-0.04000000
538,0,0.46900000,0.05800000,0.88100000,0.04000000,-0.10000000,0.05000000,-0.05930328,-0.20376330,-0.07235048,3.85000000,-28.34000000,-0.04000000
539,0,0.47500000,0.06000000,0.88000000,0.04000000,0.09000000,0.05000000,-0.05926306,-0.20367280,-0.07230020,3.85000000,-28.34000000,-0.03000000
540,0,0.47300000,0.05800000,0.87900000,-0.02000000,-0.19000000,0.20000000,-0.05928309,-0.20386303,-0.07209996,3.85000000,-28.34000000,-0.03000000
541,0,0.47300000,0.06000000,0.88100000,-0.10000000,0.11000000,0.08000000,-0.05938307,-0.20375306,-0.07201998,3.85000000,-28.34000000,-0.03000000
542,0,0.47400000,0.06300000,0.87700000,0.13000000,0.12000000,0.02000000,-0.05925272,-0.20363274,-0.07199992,3.85000000,-28.34000000,-0.03000000
543,0,0.47600000,0.06000000,0.88100000,0.11000000,0.12000000,-0.28000000,-0.05313430,-0.19695810,-0.08757407,3.85000000,-28.34000000,-0.03000000
544,0,0.47200000,0.05800000,0.88200000,-0.17000000,0.03000000,-0.05000000,-0.05331623,-0.19692600,-0.08762758,3.85000000,-28.34000000,-0.03000000
545,0,0.47300000,0.05700000,0.87900000,0.16000000,0.06000000,0.23000000,-0.05315523,-0.19686562,-0.08739615,3.85000000,-28.34000000,-0.03000000
546,0,0.47500000,0.05800000,0.87700000,0.03000000,0.20000000,0.07000000,-0.05312502,-0.19666424,-0.08732566,3.85000000,-28.34000000,-0.03000000
547,0,0.47500000,0.05700000,0.87800000,0.03000000,0.17000000,-0.39000000,-0.05309508,-0.19649456,-0.08771493,3.85000000,-28.34000000,-0.03000000
548,0,0.46900000,0.06000000,0.87900000,-0.18000000,0.00000000,-0.16000000,-0.05327551,-0.19649456,-0.08787532,3.85000000,-28.34000000,-0.03000000
549,0,0.47400000,0.05800000,0.87600000,0.05000000,0.06000000,0.29000000,-0.05045548,-0.19311052,-0.07151913,3.85000000,-28.34000000,-0.03000000
550,0,0.46800000,0.05700000,0.88300000,0.37000000,0.00000000,-0.10000000,-0.05006862,-0.19311052,-0.07162369,3.85000000,-28.34000000,-0.03000000
551,0,0.47600000,0.06300000,0.87600000,-0.27000000,-0.14000000,0.03000000,-0.05033843,-0.19325042,-0.07159371,3.85000000,-28.34000000,-0.03000000
552,0,0.46900000,0.06100000,0.87500000,-0.17000000,0.04000000,-0.10000000,-0.05050702,-0.19321075,-0.07169288,3.85000000,-28.34000000,-0.03000000
553,0,0.47400000,0.06300000,0.87800000,-0.09000000,-0.10000000,0.07000000,-0.05059634,-0.19330999,-0.07162341,3.85000000,-28.34000000,-0.04000000
554,0,0.47500000,0.06100000,0.88000000,-0.11000000,0.11000000,-0.27000000,-0.05070736,-0.19319897,-0.07189593,3.85000000,-28.34000000,-0.04000000
555,0,0.47400000,0.05800000,0.88200000,-0.18000000,-0.18000000,0.00000000,-0.06069275,-0.20318436,-0.07189593,3.85000000,-28.34000000,-0.04000000
556,0,0.47400000,0.06000000,0.87900000,-0.18000000,0.06000000,0.08000000,-0.06088267,-0.20312105,-0.07181152,3.85000000,-28.33000000,-0.04000000
557,0,0.47200000,0.05700000,0.88300000,-0.05000000,0.15000000,-0.03000000,-0.06093291,-0.20297033,-0.07184166,3.85000000,-28.33000000,-0.04000000
558,0,0.46900000,0.05800000,0.87800000,0.03000000,0.09000000,-0.11000000,-0.06090252,-0.20287917,-0.07195308,3.85000000,-28.33000000,-0.04000000
559,0,0.47900000,0.05700000,0.87900000,0.25000000,-0.25000000,0.02000000,-0.06065162,-0.20313007,-0.07193301,3.85000000,-28.33000000,-0.04000000
560,0,0.47300000,0.06100000,0.88000000,0.11000000,0.06000000,0.01000000,-0.06054018,-0.20306928,-0.07192288,3.85000000,-28.33000000,-0.04000000
561,0,0.47700000,0.05700000,0.88000000,-0.03000000,0.06000000,-0.14000000,-0.06220700,-0.19973564,-0.07970138,3.85000000,-28.33000000,-0.04000000
562,0,0.46700000,0.06000000,0.88000000,0.06000000,-0.30000000,-0.11000000,-0.06214349,-0.20005317,-0.07981780,3.85000000,-28.33000000,-0.04000000
563,0,0.47400000,0.05900000,0.87900000,0.00000000,0.21000000,-0.21000000,-0.06214349,-0.19984187,-0.08002911,3.85000000,-28.33000000,-0.04000000
564,0,0.47300000,0.05900000,0.88200000,-0.05000000,-0.13000000,-0.02000000,-0.06219353,-0.19997196,-0.08004913,3.85000000,-28.33000000,-0.04000000
565,0,0.46800000,0.05800000,0.87600000,0.04000000,0.10000000,-0.09000000,-0.06215357,-0.19987208,-0.08013902,3.85000000,-28.33000000,-0.04000000
566,0,0.47300000,0.05800000,0.87500000,0.07000000,-0.14000000,-0.17000000,-0.06208307,-0.20001308,-0.08031024,3.85000000,-28.33000000,-0.04000000
567,0,0.47400000,0.06100000,0.87700000,0.04000000,0.11000000,0.26000000,-0.05982757,-0.19381046,-0.06564949,3.85000000,-28.33000000,-0.04000000
568,0,0.47200000,0.05400000,0.87700000,0.16000000,-0.19000000,0.02000000,-0.05965814,-0.19401165,-0.06562831,3.85000000,-28.33000000,-0.04000000
569,0,0.47400000,0.05400000,0.87500000,0.16000000,-0.07000000,0.24000000,-0.05949718,-0.19408207,-0.06538687,3.85000000,-28.33000000,-0.04000000
570,0,0.47400000,0.05700000,0.87600000,0.09000000,-0.15000000,-0.22000000,-0.05940723,-0.19423200,-0.06560677,3.85000000,-28.33000000,-0.03000000
571,0,0.46900000,0.05600000,0.88000000,-0.10000000,-0.09000000,-0.02000000,-0.05950863,-0.19432327,-0.06562705,3.85000000,-28.33000000,-0.04000000
572,0,0.47100000,0.05700000,0.88200000,0.05000000,0.30000000,0.03000000,-0.05945829,-0.19402119,-0.06559685,3.85000000,-28.33000000,-0.04000000
573,0,0.47100000,0.06000000,0.87900000,0.17000000,0.01000000,-0.17000000,-0.05002736,-0.19346643,-0.07502777,3.85000000,-28.32000000,-0.04000000
574,0,0.46800000,0.06000000,0.87900000,0.22000000,0.09000000,-0.40000000,-0.04979408,-0.19337100,-0.07545191,3.85000000,-28.32000000,-0.04000000
575,0,0.47200000,0.06000000,0.87900000,0.03000000,-0.15000000,0.04000000,-0.04976394,-0.19352168,-0.07541173,3.85000000,-28.32000000,-0.04000000
576,0,0.47300000,0.05900000,0.88000000,0.08000000,-0.38000000,0.07000000,-0.04968358,-0.19390341,-0.07534141,3.86000000,-28.32000000,-0.04000000
577,0,0.47500000,0.05900000,0.87600000,-0.13000000,-0.10000000,-0.06000000,-0.04981640,-0.19400559,-0.07540272,3.86000000,-28.33000000,-0.04000000
578,0,0.47900000,0.05700000,0.87800000,0.08000000,-0.14000000,0.09000000,-0.04973587,-0.19414652,-0.07531211,3.86000000,-28.33000000,-0.04000000
579,0,0.47500000,0.05900000,0.87900000,-0.07000000,-0.28000000,0.27000000,-0.05362966,-0.20972168,-0.06029322,3.85000000,-28.33000000,-0.04000000
580,0,0.47500000,0.05700000,0.88200000,0.16000000,0.09000000,-0.22000000,-0.05346031,-0.20962642,-0.06052607,3.85000000,-28.33000000,-0.04000000
581,0,0.47400000,0.05900000,0.87500000,-0.06000000,0.20000000,-0.13000000,-0.05352085,-0.20942460,-0.06065726,3.85000000,-28.33000000,-0.04000000
582,0,0.47100000,0.05900000,0.88200000,-0.06000000,0.02000000,-0.03000000,-0.05358100,-0.20940455,-0.06068733,3.85000000,-28.33000000,-0.04000000
583,0,0.46900000,0.05900000,0.87800000,-0.00000000,-0.26000000,-0.26000000,-0.05358100,-0.20966896,-0.06095174,3.85000000,-28.33000000,-0.04000000
584,0,0.47400000,0.05800000,0.87700000,-0.02000000,0.03000000,-0.04000000,-0.05360115,-0.20963873,-0.06099204,3.85000000,-28.33000000,-0.04000000
585,0,0.47800000,0.06100000,0.88100000,-0.02000000,0.17000000,-0.00000000,-0.05472721,-0.20006720,-0.06099204,3.85000000,-28.32000000,-0.04000000
586,0,0.47500000,0.06000000,0.88200000,-0.19000000,0.04000000,0.14000000,-0.05492863,-0.20002479,-0.06084363,3.85000000,-28.32000000,-0.04000000
587,0,0.47600000,0.05400000,0.87800000,0.25000000,0.06000000,0.05000000,-0.05467648,-0.19996428,-0.06079320,3.85000000,-28.32000000,-0.04000000
588,0,0.47500000,0.06000000,0.87600000,-0.10000000,0.10000000,0.20000000,-0.05477777,-0.19986299,-0.06059062,3.85000000,-28.33000000,-0.04000000
589,0,0.47000000,0.06000000,0.87800000,0.05000000,-0.02000000,0.14000000,-0.05472720,-0.19988322,-0.06044901,3.85000000,-28.33000000,-0.03000000
590,0,0.47700000,0.06100000,0.87900000,0.36000000,0.11000000,0.07000000,-0.05436384,-0.19977219,-0.06037836,3.85000000,-28.33000000,-0.03000000
591,0,0.47600000,0.05700000,0.87800000,-0.15000000,0.05000000,0.04000000,-0.06268289,-0.19699917,-0.05815994,3.85000000,-28.33000000,-0.03000000
592,0,0.47300000,0.06600000,0.87600000,0.00000000,-0.04000000,-0.09000000,-0.06268289,-0.19704137,-0.05825488,3.85000000,-28.33000000,-0.04000000
593,0,0.47400000,0.05900000,0.87700000,-0.08000000,-0.23000000,-0.04000000,-0.06276363,-0.19727351,-0.05829526,3.85000000,-28.33000000,-0.04000000
594,0,0.47000000,0.05700000,0.87900000,0.00000000,0.15000000,0.19000000,-0.06276363,-0.19712083,-0.05810185,3.85000000,-28.33000000,-0.04000000
595,0,0.47700000,0.05800000,0.88400000,0.02000000,-0.27000000,-0.22000000,-0.06274360,-0.19739129,-0.05832223,3.85000000,-28.32000000,-0.04000000
596,0,0.46800000,0.05600000,0.87600000,-0.07000000,0.01000000,-0.40000000,-0.06281385,-0.19738125,-0.05872367,3.85000000,-28.33000000,-0.04000000
597,0,0.47500000,0.05800000,0.87600000,0.06000000,-0.03000000,0.01000000,-0.05947617,-0.19905009,-0.05816739,3.85000000,-28.32000000,-0.04000000
598,0,0.47400000,0.05800000,0.88200000,0.22000000,-0.09000000,-0.13000000,-0.05924279,-0.19914556,-0.05830530,3.85000000,-28.33000000,-0.04000000
599,0,0.47600000,0.05700000,0.87700000,0.05000000,-0.18000000,0.20000000,-0.05919253,-0.19932651,-0.05810424,3.85000000,-28.32000000,-0.04000000
600,0,0.47200000,0.05800000,0.88100000,0.21000000,0.16000000,-0.21000000,-0.05898077,-0.19916517,-0.05831600,3.86000000,-28.33000000,-0.04000000
601,0,0.47500000,0.06100000,0.87900000,-0.21000000,0.25000000,0.14000000,-0.05919068,-0.19891528,-0.05817606,3.86000000,-28.32000000,-0.04000000
602,0,0.47100000,0.06000000,0.87900000,-0.10000000,0.16000000,0.01000000,-0.05929097,-0.19875482,-0.05816603,3.86000000,-28.32000000,-0.04000000
603,0,0.47600000,0.06300000,0.87900000,-0.22000000,0.05000000,0.11000000,-0.07168232,-0.19593860,-0.05197036,3.86000000,-28.32000000,-0.04000000
604,0,0.47500000,0.05600000,0.87800000,-0.05000000,-0.01000000,0.18000000,-0.07173518,-0.19594918,-0.05178005,3.86000000,-28.32000000,-0.04000000
605,0,0.47600000,0.05500000,0.88000000,0.01000000,0.02000000,-0.08000000,-0.07172506,-0.19592892,-0.05186106,3.86000000,-28.32000000,-0.04000000
606,0,0.47700000,0.05900000,0.87900000,-0.04000000,0.24000000,0.14000000,-0.07176492,-0.19568972,-0.05172153,3.86000000,-28.32000000,-0.04000000
607,0,0.47300000,0.06100000,0.88200000,0.14000000,0.03000000,-0.08000000,-0.07162559,-0.19565986,-0.05180115,3.86000000,-28.32000000,-0.04000000
608,0,0.47300000,0.06100000,0.87600000,-0.22000000,-0.04000000,-0.04000000,-0.07184497,-0.19569975,-0.05184104,3.86000000,-28.32000000,-0.04000000
609,0,0.47000000,0.06000000,0.88000000,0.09000000,0.04000000,0.14000000,-0.06684937,-0.19347948,-0.04407012,3.86000000,-28.32000000,-0.04000000
610,0,0.47400000,0.05700000,0.87700000,0.10000000,0.01000000,0.18000000,-0.06674332,-0.19346888,-0.04387921,3.86000000,-28.32000000,-0.04000000
611,0,0.46500000,0.05800000,0.87800000,-0.29000000,-0.04000000,-0.00000000,-0.06703955,-0.19350974,-0.04387921,3.86000000,-28.32000000,-0.04000000
612,0,0.47200000,0.05700000,0.87900000,0.15000000,-0.05000000,-0.01000000,-0.06688915,-0.19355987,-0.04388924,3.86000000,-28.32000000,-0.04000000
613,0,0.47500000,0.06100000,0.88300000,0.07000000,0.02000000,-0.03000000,-0.06681860,-0.19353971,-0.04391947,3.86000000,-28.32000000,-0.04000000
614,0,0.47100000,0.05900000,0.87600000,0.10000000,-0.01000000,0.08000000,-0.06671819,-0.19354975,-0.04383915,3.86000000,-28.32000000,-0.04000000
615,0,0.47100000,0.06100000,0.88000000,-0.00000000,-0.06000000,0.05000000,-0.06671819,-0.19689226,-0.04105372,3.86000000,-28.32000000,-0.04000000
616,0,0.47400000,0.06100000,0.87800000,0.05000000,0.15000000,0.08000000,-0.06666523,-0.19673339,-0.04096899,3.86000000,-28.32000000,-0.04000000
617,0,0.46900000,0.06300000,0.87800000,0.07000000,-0.00000000,0.20000000,-0.06659408,-0.19673339,-0.04076569,3.86000000,-28.32000000,-0.04000000
618,0,0.47300000,0.05600000,0.88000000,-0.00000000,-0.04000000,0.28000000,-0.06659408,-0.19677336,-0.04048588,3.86000000,-28.32000000,-0.04000000
619,0,0.47600000,0.06100000,0.87800000,-0.11000000,-0.12000000,0.18000000,-0.06670379,-0.19689305,-0.04030635,3.86000000,-28.32000000,-0.04000000
620,0,0.47400000,0.05800000,0.87900000,-0.32000000,0.26000000,0.08000000,-0.06702700,-0.19663044,-0.04022555,3.86000000,-28.32000000,-0.04000000
621,0,0.47100000,0.05900000,0.87700000,0.25000000,0.06000000,0.04000000,-0.05297113,-0.19325703,-0.03797661,3.86000000,-28.31000000,-0.04000000
622,0,0.47300000,0.06300000,0.87800000,0.04000000,0.04000000,-0.16000000,-0.05292856,-0.19321446,-0.03814687,3.86000000,-28.31000000,-0.04000000
623,0,0.46900000,0.05900000,0.87900000,-0.04000000,0.18000000,0.06000000,-0.05296871,-0.19303381,-0.03808666,3.86000000,-28.31000000,-0.04000000
624,0,0.47500000,0.05500000,0.87700000,0.03000000,-0.11000000,0.22000000,-0.05293884,-0.19314334,-0.03786759,3.86000000,-28.31000000,-0.04000000
625,0,0.47400000,0.06300000,0.88000000,0.09000000,-0.01000000,-0.03000000,-0.05284931,-0.19315329,-0.03789744,3.86000000,-28.31000000,-0.04000000
626,0,0.47200000,0.06300000,0.87600000,-0.04000000,-0.11000000,-0.11000000,-0.05288943,-0.19326364,-0.03800778,3.86000000,-28.31000000,-0.04000000
627,0,0.47200000,0.05900000,0.88100000,0.10000000,0.10000000,-0.15000000,-0.04733386,-0.18770807,-0.04634113,3.86000000,-28.31000000,-0.04000000
628,0,0.47600000,0.05500000,0.87800000,0.00000000,0.30000000,-0.08000000,-0.04733386,-0.18738860,-0.04642633,3.86000000,-28.31000000,-0.04000000
629,0,0.47700000,0.06000000,0.87700000,0.09000000,0.09000000,0.05000000,-0.04724390,-0.18729864,-0.04637635,3.86000000,-28.31000000,-0.04000000
630,0,0.47300000,0.06200000,0.87700000,-0.06000000,0.18000000,0.07000000,-0.04730326,-0.18712057,-0.04630710,3.86000000,-28.31000000,-0.04000000
631,0,0.47200000,0.06100000,0.88400000,-0.23000000,0.10000000,-0.03000000,-0.04753075,-0.18702166,-0.04633677,3.86000000,-28.31000000,-0.04000000
632,0,0.47500000,0.06100000,0.88100000,-0.02000000,0.14000000,0.06000000,-0.04755077,-0.18688146,-0.04627668,3.86000000,-28.31000000,-0.04000000
633,0,0.47400000,0.06600000,0.87900000,-0.19000000,0.13000000,-0.20000000,-0.05813322,-0.17964084,-0.05741609,3.86000000,-28.31000000,-0.04000000
634,0,0.47300000,0.05800000,0.87900000,0.30000000,-0.14000000,-0.02000000,-0.05781218,-0.17979066,-0.05743750,3.86000000,-28.31000000,-0.04000000
635,0,0.47300000,0.05600000,0.87700000,0.10000000,-0.17000000,-0.34000000,-0.05771139,-0.17996200,-0.05778018,3.86000000,-28.31000000,-0.04000000
636,0,0.47100000,0.05300000,0.88100000,-0.04000000,-0.14000000,-0.11000000,-0.05775138,-0.18010197,-0.05789016,3.86000000,-28.31000000,-0.04000000
637,0,0.47500000,0.05700000,0.87700000,-0.01000000,-0.09000000,0.25000000,-0.05776145,-0.18019262,-0.05763836,3.86000000,-28.31000000,-0.04000000
638,0,0.47100000,0.05900000,0.88200000,0.12000000,-0.11000000,0.19000000,-0.05764065,-0.18030336,-0.05744709,3.86000000,-28.31000000,-0.04000000
639,0,0.47900000,0.05500000,0.87300000,-0.28000000,0.06000000,0.18000000,-0.07338309,-0.17692997,-0.04732695,3.85000000,-28.31000000,-0.04000000
640,0,0.47100000,0.05900000,0.88000000,-0.06000000,0.28000000,-0.01000000,-0.07344616,-0.17663568,-0.04733746,3.85000000,-28.31000000,-0.03000000
641,0,0.47400000,0.05800000,0.88300000,-0.01000000,-0.01000000,0.02000000,-0.07345617,-0.17664570,-0.04731742,3.85000000,-28.31000000,-0.03000000
642,0,0.47300000,0.06100000,0.88000000,-0.04000000,-0.11000000,-0.03000000,-0.07349603,-0.17675531,-0.04734732,3.85000000,-28.31000000,-0.04000000
643,0,0.47200000,0.06000000,0.88000000,-0.02000000,-0.19000000,0.15000000,-0.07351620,-0.17694694,-0.04719602,3.85000000,-28.31000000,-0.03000000
644,0,0.47500000,0.05900000,0.87900000,0.22000000,-0.12000000,-0.17000000,-0.07329578,-0.17706718,-0.04736635,3.85000000,-28.31000000,-0.04000000
645,0,0.47500000,0.06000000,0.87800000,-0.03000000,0.12000000,0.02000000,-0.07505269,-0.17003955,-0.04619508,3.85000000,-28.30000000,-0.03000000
646,0,0.46900000,0.05800000,0.87700000,0.08000000,0.11000000,-0.08000000,-0.07496751,-0.16992244,-0.04628025,3.85000000,-28.30000000,-0.03000000
647,0,0.47300000,0.06100000,0.87800000,0.10000000,0.27000000,0.09000000,-0.07486699,-0.16965101,-0.04618978,3.85000000,-28.30000000,-0.03000000
648,0,0.47500000,0.05800000,0.87900000,0.03000000,-0.06000000,0.02000000,-0.07483628,-0.16971243,-0.04616931,3.85000000,-28.30000000,-0.03000000
649,0,0.47900000,0.05900000,0.88300000,0.01000000,0.07000000,0.07000000,-0.07482612,-0.16964136,-0.04609824,3.85000000,-28.30000000,-0.03000000
650,0,0.47000000,0.06100000,0.88000000,-0.24000000,0.05000000,-0.19000000,-0.07506911,-0.16959074,-0.04629060,3.85000000,-28.30000000,-0.03000000
651,0,0.47200000,0.06100000,0.87500000,-0.16000000,-0.08000000,0.02000000,-0.07523274,-0.16967255,-0.04627014,3.85000000,-28.30000000,-0.03000000
652,0,0.47300000,0.05900000,0.87800000,0.12000000,-0.22000000,0.27000000,-0.06856694,-0.18189318,-0.03127210,3.85000000,-28.30000000,-0.03000000
653,0,0.47200000,0.06100000,0.87900000,0.00000000,0.04000000,-0.06000000,-0.06856694,-0.18184933,-0.03133787,3.85000000,-28.30000000,-0.03000000
654,0,0.47200000,0.06100000,0.87400000,-0.29000000,-0.10000000,-0.04000000,-0.06887092,-0.18195415,-0.03137980,3.85000000,-28.30000000,-0.03000000
655,0,0.47300000,0.05700000,0.87900000,0.06000000,0.14000000,-0.15000000,-0.06881037,-0.18181288,-0.03153116,3.85000000,-28.30000000,-0.03000000
656,0,0.47600000,0.06200000,0.88300000,-0.10000000,-0.36000000,-0.12000000,-0.06891173,-0.18217778,-0.03165280,3.85000000,-28.30000000,-0.04000000
657,0,0.47300000,0.06000000,0.87800000,-0.09000000,0.15000000,-0.04000000,-0.06900201,-0.18202731,-0.03169292,3.85000000,-28.30000000,-0.04000000
658,0,0.47200000,0.05600000,0.87700000,0.03000000,0.01000000,-0.24000000,-0.06731419,-0.18146470,-0.04519554,3.85000000,-28.30000000,-0.04000000
659,0,0.47000000,0.06000000,0.88000000,0.21000000,-0.16000000,-0.15000000,-0.06703839,-0.18167483,-0.04539254,3.85000000,-28.30000000,-0.04000000
660,0,0.47400000,0.05700000,0.87700000,-0.08000000,-0.15000000,0.14000000,-0.06711960,-0.18182709,-0.04525043,3.86000000,-28.30000000,-0.04000000
661,0,0.47000000,0.06300000,0.88200000,0.06000000,0.09000000,-0.07000000,-0.06705902,-0.18173623,-0.04532110,3.86000000,-28.30000000,-0.04000000
662,0,0.47100000,0.05700000,0.88000000,-0.13000000,0.24000000,-0.06000000,-0.06718937,-0.18149559,-0.04538126,3.86000000,-28.30000000,-0.04000000
663,0,0.47400000,0.06100000,0.88000000,0.04000000,-0.16000000,0.17000000,-0.06714910,-0.18165667,-0.04521012,3.85000000,-28.30000000,-0.04000000
664,0,0.47200000,0.05900000,0.87800000,0.10000000,0.04000000,0.16000000,-0.06163520,-0.17945111,-0.03638789,3.85000000,-28.29000000,-0.04000000
665,0,0.47100000,0.06200000,0.87600000,-0.24000000,0.03000000,-0.13000000,-0.06188917,-0.17941936,-0.03652546,3.85000000,-28.29000000,-0.04000000
666,0,0.47400000,0.06000000,0.87600000,-0.02000000,0.02000000,-0.00000000,-0.06190936,-0.17939918,-0.03652546,3.85000000,-28.29000000,-0.04000000
667,0,0.47600000,0.06400000,0.87800000,-0.18000000,0.16000000,-0.00000000,-0.06208893,-0.17923956,-0.03652546,3.85000000,-28.29000000,-0.04000000
668,0,0.47200000,0.05900000,0.87800000,0.14000000,-0.01000000,0.03000000,-0.06194779,-0.17924964,-0.03649522,3.85000000,-28.29000000,-0.04000000
669,0,0.47200000,0.06100000,0.87800000,0.04000000,-0.25000000,0.15000000,-0.06190774,-0.17949995,-0.03634503,3.85000000,-28.30000000,-0.04000000
670,0,0.46700000,0.05700000,0.87800000,0.00000000,-0.00000000,0.18000000,-0.06190774,-0.17949995,-0.02632947,3.85000000,-28.30000000,-0.03000000
671,0,0.47300000,0.05600000,0.87300000,-0.08000000,0.01000000,0.20000000,-0.06199292,-0.17948930,-0.02611655,3.85000000,-28.29000000,-0.03000000
672,0,0.47500000,0.05700000,0.88500000,-0.13000000,0.02000000,-0.09000000,-0.06213014,-0.17946819,-0.02621155,3.85000000,-28.30000000,-0.04000000
673,0,0.46900000,0.06000000,0.87700000,0.09000000,-0.03000000,0.12000000,-0.06203924,-0.17949849,-0.02609034,3.85000000,-28.30000000,-0.04000000
674,0,0.47000000,0.05500000,0.87400000,-0.03000000,-0.06000000,-0.07000000,-0.06206932,-0.17955866,-0.02616055,3.85000000,-28.30000000,-0.04000000
675,0,0.46800000,0.05900000,0.88000000,0.05000000,0.01000000,0.01000000,-0.06201904,-0.17954860,-0.02615049,3.85000000,-28.30000000,-0.04000000
676,0,0.47400000,0.05800000,0.87800000,0.13000000,-0.03000000,0.02000000,-0.05470465,-0.18123654,-0.02502520,3.85000000,-28.30000000,-0.04000000
677,0,0.46800000,0.05800000,0.87700000,-0.07000000,-0.11000000,0.08000000,-0.05477821,-0.18135213,-0.02494113,3.85000000,-28.30000000,-0.04000000
678,0,0.47900000,0.06000000,0.87800000,-0.24000000,-0.36000000,0.10000000,-0.05501930,-0.18171377,-0.02484068,3.85000000,-28.30000000,-0.03000000
679,0,0.47000000,0.06100000,0.87700000,0.04000000,0.05000000,0.13000000,-0.05497897,-0.18166335,-0.02470959,3.85000000,-28.30000000,-0.03000000
680,0,0.47000000,0.05800000,0.87700000,-0.01000000,0.19000000,0.10000000,-0.05498899,-0.18147285,-0.02460932,3.85000000,-28.30000000,-0.03000000
681,0,0.46700000,0.06000000,0.87700000,0.01000000,-0.05000000,-0.08000000,-0.05497897,-0.18152296,-0.02468950,3.85000000,-28.30000000,-0.03000000
682,0,0.46700000,0.05700000,0.87900000,0.04000000,0.11000000,-0.31000000,-0.05275919,-0.17541855,-0.04189284,3.85000000,-28.29000000,-0.03000000
683,0,0.46700000,0.06100000,0.87800000,-0.23000000,-0.23000000,-0.16000000,-0.05300208,-0.17566144,-0.04206181,3.85000000,-28.29000000,-0.03000000
684,0,0.47500000,0.06200000,0.87500000,0.16000000,-0.03000000,0.02000000,-0.05284143,-0.17569156,-0.04204173,3.85000000,-28.29000000,-0.03000000
685,0,0.47100000,0.05400000,0.87600000,0.15000000,-0.17000000,0.07000000,-0.05269056,-0.17586254,-0.04197132,3.85000000,-28.29000000,-0.03000000
686,0,0.47800000,0.05800000,0.87800000,-0.11000000,-0.09000000,-0.11000000,-0.05279996,-0.17595205,-0.04208072,3.85000000,-28.30000000,-0.03000000
687,0,0.47100000,0.06300000,0.87900000,-0.06000000,0.15000000,-0.19000000,-0.05285974,-0.17580262,-0.04227000,3.85000000,-28.30000000,-0.04000000
688,0,0.47200000,0.06100000,0.88100000,-0.01000000,-0.08000000,0.26000000,-0.05342476,-0.18032283,-0.02757931,3.85000000,-28.30000000,-0.04000000
689,0,0.47700000,0.06000000,0.88200000,0.23000000,0.05000000,-0.02000000,-0.05318088,-0.18026981,-0.02760051,3.85000000,-28.29000000,-0.03000000
690,0,0.47300000,0.06200000,0.87700000,0.03000000,0.15000000,-0.08000000,-0.05315035,-0.18011713,-0.02768195,3.85000000,-28.29000000,-0.04000000
691,0,0.47500000,0.05900000,0.87700000,0.18000000,0.03000000,-0.18000000,-0.05297068,-0.18008718,-0.02786161,3.85000000,-28.29000000,-0.03000000
692,0,0.46900000,0.05500000,0.87800000,0.15000000,-0.15000000,-0.07000000,-0.05282089,-0.18023697,-0.02793151,3.85000000,-28.29000000,-0.03000000
693,0,0.47400000,0.05800000,0.88100000,-0.08000000,0.10000000,0.05000000,-0.05292239,-0.18011010,-0.02786807,3.85000000,-28.29000000,-0.03000000
694,0,0.47200000,0.05800000,0.87600000,-0.23000000,0.15000000,0.05000000,-0.06562222,-0.17182760,-0.02510724,3.85000000,-28.29000000,-0.03000000
695,0,0.47100000,0.05800000,0.87900000,0.00000000,-0.11000000,-0.01000000,-0.06562222,-0.17194379,-0.02511780,3.85000000,-28.29000000,-0.03000000
696,0,0.47000000,0.06300000,0.88400000,-0.20000000,0.14000000,0.05000000,-0.06582533,-0.17180162,-0.02506703,3.85000000,-28.29000000,-0.04000000
697,0,0.46800000,0.05900000,0.88000000,0.05000000,-0.14000000,-0.10000000,-0.06577541,-0.17194139,-0.02516686,3.85000000,-28.29000000,-0.04000000
698,0,0.47200000,0.05900000,0.87900000,0.03000000,-0.07000000,0.21000000,-0.06574550,-0.17201118,-0.02495751,3.85000000,-28.29000000,-0.04000000
699,0,0.47200000,0.06000000,0.88000000,-0.15000000,0.06000000,0.14000000,-0.06589540,-0.17195122,-0.02481761,3.85000000,-28.29000000,-0.03000000
700,0,0.47500000,0.06100000,0.88000000,0.12000000,0.06000000,0.06000000,-0.05923218,-0.16861961,-0.02148599,3.85000000,-28.29000000,-0.03000000
701,0,0.47500000,0.05900000,0.88200000,0.13000000,0.20000000,0.13000000,-0.05909539,-0.16840916,-0.02134920,3.85000000,-28.29000000,-0.03000000
702,0,0.47300000,0.05800000,0.87800000,0.17000000,0.22000000,-0.19000000,-0.05892133,-0.16818391,-0.02154374,3.85000000,-28.28000000,-0.04000000
703,0,0.47600000,0.05900000,0.88200000,0.11000000,0.25000000,-0.26000000,-0.05881093,-0.16793301,-0.02180468,3.85000000,-28.28000000,-0.04000000
704,0,0.47300000,0.05900000,0.88300000,0.10000000,0.03000000,-0.16000000,-0.05871057,-0.16790290,-0.02196525,3.85000000,-28.28000000,-0.04000000
705,0,0.46900000,0.05900000,0.87500000,-0.04000000,-0.08000000,-0.02000000,-0.05875071,-0.16798319,-0.02198533,3.85000000,-28.28000000,-0.04000000
706,0,0.47500000,0.05500000,0.87800000,0.21000000,0.06000000,-0.15000000,-0.04705703,-0.16464213,-0.03033795,3.85000000,-28.28000000,-0.04000000
707,0,0.47600000,0.06100000,0.87800000,-0.12000000,0.03000000,0.17000000,-0.04718468,-0.16461022,-0.03015713,3.85000000,-28.28000000,-0.04000000
708,0,0.47500000,0.05400000,0.88300000,-0.06000000,0.12000000,-0.19000000,-0.04724478,-0.16449002,-0.03034745,3.85000000,-28.28000000,-0.04000000
709,0,0.47200000,0.06200000,0.87900000,0.04000000,-0.04000000,0.17000000,-0.04720413,-0.16453067,-0.03017469,3.85000000,-28.28000000,-0.04000000
710,0,0.47000000,0.06100000,0.87800000,-0.02000000,0.11000000,0.23000000,-0.04722488,-0.16441655,-0.02993607,3.85000000,-28.28000000,-0.04000000
711,0,0.47300000,0.06000000,0.87400000,-0.17000000,-0.23000000,-0.05000000,-0.04739849,-0.16465144,-0.02998714,3.85000000,-28.28000000,-0.04000000
712,0,0.47400000,0.06300000,0.87900000,0.11000000,0.14000000,0.16000000,-0.04121414,-0.15678045,-0.02099172,3.85000000,-28.28000000,-0.04000000
713,0,0.47000000,0.06000000,0.87900000,0.14000000,-0.02000000,-0.03000000,-0.04106446,-0.15680183,-0.02102379,3.85000000,-28.28000000,-0.04000000
714,0,0.47600000,0.06000000,0.88300000,0.13000000,0.02000000,-0.17000000,-0.04093290,-0.15678159,-0.02119583,3.86000000,-28.28000000,-0.04000000
715,0,0.47200000,0.05600000,0.88100000,0.06000000,0.03000000,-0.07000000,-0.04087239,-0.15675133,-0.02126643,3.86000000,-28.28000000,-0.04000000
716,0,0.47300000,0.06200000,0.87800000,0.20000000,0.09000000,0.07000000,-0.04067171,-0.15666103,-0.02119619,3.86000000,-28.28000000,-0.04000000
717,0,0.47200000,0.06200000,0.88300000,-0.05000000,0.22000000,-0.01000000,-0.04073345,-0.15638941,-0.02120854,3.86000000,-28.28000000,-0.04000000
718,0,0.47000000,0.06300000,0.88100000,-0.13000000,-0.15000000,0.03000000,-0.04790507,-0.16466436,-0.01955355,3.86000000,-28.28000000,-0.04000000
719,0,0.47200000,0.05500000,0.87900000,-0.21000000,0.00000000,0.03000000,-0.04812955,-0.16466436,-0.01952148,3.86000000,-28.28000000,-0.04000000
720,0,0.47000000,0.06200000,0.88000000,0.17000000,-0.13000000,-0.02000000,-0.04795816,-0.16479542,-0.01954164,3.86000000,-28.28000000,-0.04000000
721,0,0.47200000,0.05700000,0.88200000,-0.08000000,-0.13000000,-0.09000000,-0.04803807,-0.16492527,-0.01963154,3.86000000,-28.28000000,-0.04000000
722,0,0.47300000,0.05900000,0.87400000,-0.19000000,0.00000000,0.14000000,-0.04822781,-0.16492527,-0.01949174,3.86000000,-28.28000000,-0.04000000
723,0,0.47400000,0.05900000,0.87700000,0.18000000,-0.02000000,0.15000000,-0.04804608,-0.16494546,-0.01934030,3.85000000,-28.28000000,-0.04000000
724,0,0.47300000,0.05600000,0.87800000,0.27000000,0.12000000,-0.02000000,-0.03279274,-0.15816620,-0.02047018,3.86000000,-28.28000000,-0.04000000
725,0,0.47700000,0.06000000,0.87800000,-0.00000000,0.10000000,-0.02000000,-0.03279274,-0.15806042,-0.02049133,3.86000000,-28.28000000,-0.04000000
726,0,0.47300000,0.06000000,0.88400000,0.13000000,0.25000000,0.01000000,-0.03266233,-0.15780964,-0.02048130,3.86000000,-28.28000000,-0.04000000
727,0,0.47100000,0.05900000,0.87800000,-0.05000000,0.03000000,0.10000000,-0.03271269,-0.15777943,-0.02038058,3.85000000,-28.28000000,-0.04000000
728,0,0.47000000,0.06100000,0.87800000,-0.03000000,0.01000000,0.09000000,-0.03274285,-0.15776937,-0.02029011,3.86000000,-28.28000000,-0.04000000
729,0,0.47300000,0.05900000,0.87600000,0.02000000,-0.09000000,-0.02000000,-0.03272228,-0.15786195,-0.02031068,3.86000000,-28.28000000,-0.04000000
730,0,0.47000000,0.05500000,0.88100000,0.23000000,0.01000000,-0.15000000,-0.01996745,-0.15730739,-0.02862905,3.86000000,-28.28000000,-0.04000000
731,0,0.46700000,0.05900000,0.87900000,0.04000000,0.03000000,0.13000000,-0.01992513,-0.15727565,-0.02849151,3.86000000,-28.28000000,-0.04000000
732,0,0.46800000,0.05800000,0.87800000,-0.12000000,0.09000000,0.05000000,-0.02005340,-0.15717945,-0.02843807,3.86000000,-28.28000000,-0.04000000
733,0,0.47100000,0.05900000,0.87700000,0.05000000,0.03000000,-0.07000000,-0.02000253,-0.15714893,-0.02850929,3.86000000,-28.28000000,-0.04000000
734,0,0.47600000,0.06000000,0.87900000,0.21000000,-0.12000000,-0.08000000,-0.01978997,-0.15727039,-0.02859026,3.86000000,-28.28000000,-0.04000000
735,0,0.46700000,0.06100000,0.88100000,0.03000000,-0.03000000,-0.01000000,-0.01975980,-0.15730056,-0.02860032,3.86000000,-28.28000000,-0.04000000
736,0,0.47100000,0.06100000,0.87800000,-0.12000000,-0.19000000,-0.14000000,-0.02640943,-0.16782914,-0.03635822,3.86000000,-28.28000000,-0.04000000
737,0,0.47400000,0.06100000,0.88600000,-0.12000000,0.01000000,-0.08000000,-0.02653690,-0.16781852,-0.03644320,3.86000000,-28.27000000,-0.04000000
738,0,0.47200000,0.05800000,0.87900000,-0.03000000,-0.21000000,0.04000000,-0.02656717,-0.16803043,-0.03640284,3.86000000,-28.27000000,-0.04000000
739,0,0.47500000,0.05900000,0.88100000,0.07000000,-0.09000000,-0.39000000,-0.02649735,-0.16812020,-0.03679183,3.86000000,-28.27000000,-0.04000000
740,0,0.47500000,0.06200000,0.87900000,-0.25000000,0.17000000,0.22000000,-0.02674968,-0.16794861,-0.03656978,3.86000000,-28.27000000,-0.04000000
741,0,0.47400000,0.06000000,0.88000000,-0.03000000,-0.02000000,-0.19000000,-0.02677985,-0.16796872,-0.03676082,3.86000000,-28.27000000,-0.04000000
742,0,0.46900000,0.05500000,0.88100000,0.18000000,-0.09000000,0.02000000,-0.01661838,-0.17304946,-0.03563177,3.86000000,-28.27000000,-0.04000000
743,0,0.47200000,0.05500000,0.88000000,-0.03000000,0.03000000,0.17000000,-0.01664995,-0.17301788,-0.03545285,3.86000000,-28.27000000,-0.04000000
744,0,0.47600000,0.06000000,0.88100000,-0.06000000,-0.23000000,0.19000000,-0.01671011,-0.17324849,-0.03526235,3.86000000,-28.27000000,-0.04000000
745,0,0.46900000,0.06100000,0.88000000,0.10000000,-0.26000000,0.14000000,-0.01660803,-0.17351389,-0.03511944,3.86000000,-28.27000000,-0.04000000
746,0,0.47200000,0.05800000,0.88100000,-0.25000000,0.06000000,0.09000000,-0.01686293,-0.17345272,-0.03502767,3.86000000,-28.27000000,-0.04000000
747,0,0.46900000,0.06000000,0.87600000,0.22000000,0.07000000,0.04000000,-0.01664098,-0.17338210,-0.03498732,3.86000000,-28.27000000,-0.04000000
748,0,0.47000000,0.05900000,0.88100000,0.09000000,-0.14000000,-0.18000000,-0.01164840,-0.18114835,-0.04497250,3.86000000,-28.27000000,-0.04000000
749,0,0.47000000,0.06400000,0.87700000,0.03000000,0.18000000,-0.00000000,-0.01161695,-0.18095967,-0.04497250,3.86000000,-28.27000000,-0.04000000
750,0,0.46800000,0.05800000,0.87700000,-0.15000000,-0.16000000,0.19000000,-0.01176742,-0.18112017,-0.04478190,3.86000000,-28.27000000,-0.04000000
751,0,0.46900000,0.05600000,0.87600000,-0.21000000,0.16000000,0.02000000,-0.01198058,-0.18095776,-0.04476160,3.86000000,-28.27000000,-0.04000000
752,0,0.47100000,0.06100000,0.87900000,-0.06000000,0.06000000,0.12000000,-0.01204081,-0.18089753,-0.04464114,3.86000000,-28.27000000,-0.04000000
753,0,0.47200000,0.05600000,0.87900000,0.18000000,-0.09000000,-0.19000000,-0.01185986,-0.18098801,-0.04483214,3.86000000,-28.27000000,-0.04000000
754,0,0.47400000,0.06100000,0.87800000,-0.06000000,-0.03000000,-0.13000000,-0.01519635,-0.18265625,-0.05206120,3.86000000,-28.27000000,-0.04000000
755,0,0.47300000,0.05800000,0.87800000,-0.07000000,-0.01000000,0.12000000,-0.01526971,-0.18266673,-0.05193544,3.86000000,-28.27000000,-0.04000000
756,0,0.47100000,0.06000000,0.88100000,-0.05000000,-0.10000000,0.08000000,-0.01531952,-0.18276635,-0.05185575,3.86000000,-28.27000000,-0.04000000
757,0,0.47400000,0.05500000,0.87900000,-0.10000000,0.05000000,-0.25000000,-0.01542090,-0.18271566,-0.05210921,3.86000000,-28.27000000,-0.04000000
758,0,0.47300000,0.06000000,0.87700000,0.04000000,-0.02000000,0.03000000,-0.01538075,-0.18273574,-0.05207910,3.86000000,-28.27000000,-0.04000000
759,0,0.47400000,0.05600000,0.88000000,0.30000000,-0.14000000,0.02000000,-0.01507788,-0.18287708,-0.05205890,3.86000000,-28.27000000,-0.04000000
760,0,0.47200000,0.05900000,0.88100000,0.10000000,-0.10000000,-0.03000000,-0.00944282,-0.18851213,-0.05374942,3.86000000,-28.27000000,-0.04000000
761,0,0.47400000,0.05200000,0.88000000,0.19000000,-0.09000000,0.01000000,-0.00924588,-0.18860542,-0.05373906,3.86000000,-28.27000000,-0.04000000
762,0,0.47200000,0.06000000,0.88100000,-0.01000000,0.35000000,-0.05000000,-0.00925597,-0.18825249,-0.05378948,3.86000000,-28.27000000,-0.04000000
763,0,0.46800000,0.06200000,0.87900000,0.07000000,0.24000000,-0.00000000,-0.00918642,-0.18801403,-0.05378948,3.86000000,-28.26000000,-0.04000000
764,0,0.47100000,0.06000000,0.87900000,-0.11000000,0.04000000,0.01000000,-0.00929500,-0.18797454,-0.05377960,3.86000000,-28.26000000,-0.04000000
765,0,0.47200000,0.06300000,0.88100000,0.20000000,0.12000000,0.12000000,-0.00909743,-0.18785600,-0.05366106,3.86000000,-28.26000000,-0.04000000
766,0,0.47100000,0.05900000,0.88300000,-0.22000000,-0.23000000,0.14000000,-0.02132141,-0.20063561,-0.04588216,3.86000000,-28.26000000,-0.04000000
767,0,0.47600000,0.05900000,0.88300000,0.14000000,0.10000000,-0.14000000,-0.02117216,-0.20052901,-0.04603141,3.86000000,-28.26000000,-0.04000000
768,0,0.47600000,0.05900000,0.87900000,0.19000000,0.00000000,-0.01000000,-0.02097948,-0.20052901,-0.04604155,3.86000000,-28.26000000,-0.04000000
769,0,0.47300000,0.06000000,0.87700000,0.18000000,-0.01000000,0.11000000,-0.02080025,-0.20053896,-0.04593202,3.86000000,-28.26000000,-0.04000000
770,0,0.47100000,0.05900000,0.87800000,0.01000000,-0.10000000,-0.00000000,-0.02079036,-0.20063785,-0.04593202,3.86000000,-28.26000000,-0.04000000
771,0,0.47200000,0.05900000,0.87700000,0.07000000,0.07000000,-0.04000000,-0.02072091,-0.20056839,-0.04597171,3.86000000,-28.26000000,-0.04000000
772,0,0.47200000,0.06400000,0.87900000,-0.00000000,-0.14000000,-0.15000000,-0.02072091,-0.20876553,-0.05475435,3.86000000,-28.26000000,-0.04000000
773,0,0.46900000,0.06300000,0.87800000,-0.00000000,0.01000000,-0.00000000,-0.02072091,-0.20875357,-0.05475435,3.85000000,-28.26000000,-0.04000000
774,0,0.47200000,0.05600000,0.87900000,-0.04000000,0.33000000,-0.15000000,-0.02076139,-0.20841963,-0.05490614,3.85000000,-28.26000000,-0.04000000
775,0,0.46600000,0.06100000,0.87900000,0.11000000,0.10000000,0.09000000,-0.02064942,-0.20831783,-0.05481453,3.85000000,-28.26000000,-0.04000000
776,0,0.47300000,0.06000000,0.87900000,0.05000000,0.14000000,-0.08000000,-0.02059791,-0.20817363,-0.05489694,3.85000000,-28.26000000,-0.04000000
777,0,0.46800000,0.06100000,0.88100000,-0.16000000,0.02000000,0.04000000,-0.02077646,-0.20815131,-0.05485230,3.85000000,-28.26000000,-0.04000000
778,0,0.47500000,0.05600000,0.87600000,-0.15000000,-0.01000000,-0.14000000,-0.02094703,-0.20816268,-0.05501150,3.85000000,-28.26000000,-0.04000000
779,0,0.47000000,0.05900000,0.87800000,-0.23000000,-0.06000000,0.05000000,-0.03381641,-0.21151991,-0.05221380,3.85000000,-28.26000000,-0.04000000
780,0,0.47400000,0.06000000,0.88300000,0.12000000,0.04000000,0.06000000,-0.03367615,-0.21147316,-0.05214367,3.85000000,-28.26000000,-0.04000000
781,0,0.47200000,0.05700000,0.87500000,0.00000000,0.07000000,0.17000000,-0.03367615,-0.21140115,-0.05196881,3.85000000,-28.26000000,-0.04000000
782,0,0.47300000,0.05800000,0.87700000,0.27000000,0.17000000,0.17000000,-0.03340576,-0.21123090,-0.05179856,3.85000000,-28.26000000,-0.04000000
783,0,0.47700000,0.05300000,0.88300000,0.12000000,0.21000000,0.25000000,-0.03328595,-0.21102125,-0.05154897,3.85000000,-28.25000000,-0.04000000
784,0,0.47300000,0.06000000,0.87700000,-0.21000000,-0.22000000,-0.11000000,-0.03349591,-0.21124120,-0.05165894,3.85000000,-28.25000000,-0.04000000
785,0,0.47400000,0.06000000,0.87700000,-0.15000000,0.06000000,0.23000000,-0.04180416,-0.20791790,-0.03891963,3.85000000,-28.25000000,-0.04000000
786,0,0.47300000,0.06000000,0.88300000,-0.06000000,-0.35000000,0.01000000,-0.04186858,-0.20829370,-0.03890889,3.85000000,-28.25000000,-0.04000000
787,0,0.47700000,0.06000000,0.88000000,0.10000000,-0.20000000,0.12000000,-0.04176762,-0.20849561,-0.03878775,3.85000000,-28.26000000,-0.04000000
788,0,0.47000000,0.06400000,0.87500000,0.04000000,-0.15000000,-0.16000000,-0.04172751,-0.20864604,-0.03894821,3.85000000,-28.26000000,-0.04000000
789,0,0.47600000,0.06100000,0.87600000,0.02000000,-0.09000000,0.01000000,-0.04170743,-0.20873641,-0.03893817,3.85000000,-28.26000000,-0.04000000
790,0,0.47100000,0.05800000,0.87900000,0.09000000,0.24000000,-0.16000000,-0.04161682,-0.20849480,-0.03909924,3.85000000,-28.26000000,-0.04000000
791,0,0.47100000,0.06100000,0.88000000,0.05000000,-0.11000000,0.06000000,-0.03884060,-0.21460249,-0.03576777,3.85000000,-28.25000000,-0.04000000
792,0,0.47200000,0.06100000,0.87900000,-0.05000000,-0.04000000,-0.11000000,-0.03889401,-0.21464522,-0.03588528,3.85000000,-28.25000000,-0.04000000
793,0,0.47600000,0.06200000,0.87900000,0.04000000,0.16000000,-0.16000000,-0.03885179,-0.21447633,-0.03605417,3.85000000,-28.25000000,-0.04000000
794,0,0.47300000,0.05600000,0.87900000,0.04000000,-0.04000000,-0.09000000,-0.03880947,-0.21451865,-0.03614939,3.85000000,-28.25000000,-0.04000000
795,0,0.47100000,0.05100000,0.87700000,-0.11000000,0.11000000,-0.15000000,-0.03892897,-0.21439915,-0.03631234,3.85000000,-28.25000000,-0.04000000
796,0,0.47400000,0.06100000,0.87700000,-0.11000000,-0.14000000,-0.01000000,-0.03904812,-0.21455080,-0.03632317,3.85000000,-28.25000000,-0.04000000
797,0,0.47000000,0.06100000,0.88000000,-0.01000000,0.07000000,0.08000000,-0.03961011,-0.21061688,-0.03182726,3.85000000,-28.25000000,-0.04000000
798,0,0.47300000,0.06000000,0.88000000,-0.16000000,-0.18000000,-0.00000000,-0.03978503,-0.21081366,-0.03182726,3.85000000,-28.25000000,-0.04000000
799,0,0.47300000,0.06100000,0.88000000,0.22000000,-0.03000000,0.10000000,-0.03956487,-0.21084368,-0.03172718,3.85000000,-28.25000000,-0.04000000
800,0,0.47500000,0.06300000,0.87800000,0.12000000,0.07000000,-0.26000000,-0.03944655,-0.21077467,-0.03198353,3.85000000,-28.25000000,-0.04000000
801,0,0.47100000,0.05800000,0.88500000,-0.11000000,0.19000000,-0.25000000,-0.03955522,-0.21058697,-0.03223050,3.85000000,-28.25000000,-0.05000000
802,0,0.47500000,0.06100000,0.87700000,0.07000000,0.21000000,0.02000000,-0.03947240,-0.21033851,-0.03220684,3.85000000,-28.25000000,-0.05000000
803,0,0.47100000,0.05500000,0.87700000,0.01000000,0.09000000,0.01000000,-0.03891978,-0.20536492,-0.03165421,3.85000000,-28.25000000,-0.04000000
804,0,0.47400000,0.05700000,0.88000000,-0.02000000,-0.21000000,-0.04000000,-0.03894189,-0.20559715,-0.03169845,3.85000000,-28.25000000,-0.05000000
805,0,0.47200000,0.05900000,0.88400000,0.10000000,-0.04000000,0.02000000,-0.03883722,-0.20563902,-0.03167752,3.85000000,-28.25000000,-0.05000000
806,0,0.47300000,0.05700000,0.87500000,-0.11000000,0.10000000,-0.18000000,-0.03894811,-0.20553821,-0.03185898,3.85000000,-28.25000000,-0.05000000
807,0,0.47200000,0.05900000,0.88500000,0.07000000,-0.02000000,-0.10000000,-0.03887791,-0.20555827,-0.03195927,3.85000000,-28.25000000,-0.05000000
808,0,0.46900000,0.05900000,0.87500000,-0.22000000,0.16000000,-0.07000000,-0.03910075,-0.20539620,-0.03203017,3.86000000,-28.25000000,-0.05000000
809,0,0.47100000,0.06100000,0.88300000,-0.15000000,-0.08000000,-0.04000000,-0.04743936,-0.20984346,-0.03425380,3.86000000,-28.25000000,-0.05000000
810,0,0.47100000,0.05700000,0.87900000,-0.03000000,0.30000000,-0.02000000,-0.04747208,-0.20951627,-0.03427561,3.85000000,-28.25000000,-0.05000000
811,0,0.47000000,0.06300000,0.87800000,-0.15000000,-0.13000000,-0.20000000,-0.04762573,-0.20964944,-0.03448048,3.86000000,-28.25000000,-0.05000000
812,0,0.47200000,0.05400000,0.87800000,-0.02000000,-0.14000000,-0.13000000,-0.04764604,-0.20979158,-0.03461247,3.86000000,-28.25000000,-0.05000000
813,0,0.47000000,0.05500000,0.87900000,-0.17000000,0.01000000,0.08000000,-0.04781912,-0.20978140,-0.03453102,3.86000000,-28.25000000,-0.05000000
814,0,0.46900000,0.05800000,0.87700000,-0.09000000,-0.07000000,0.02000000,-0.04790949,-0.20985168,-0.03451094,3.86000000,-28.25000000,-0.05000000
815,0,0.47400000,0.05600000,0.87900000,-0.01000000,0.12000000,-0.16000000,-0.04847145,-0.20310821,-0.04350223,3.86000000,-28.25000000,-0.05000000
816,0,0.47200000,0.05700000,0.87900000,-0.05000000,-0.16000000,-0.01000000,-0.04852444,-0.20327779,-0.04351283,3.86000000,-28.25000000,-0.05000000
817,0,0.47200000,0.05700000,0.88200000,-0.10000000,0.14000000,-0.07000000,-0.04862540,-0.20313645,-0.04358350,3.86000000,-28.25000000,-0.05000000
818,0,0.47300000,0.06400000,0.88100000,-0.17000000,-0.08000000,0.30000000,-0.04879564,-0.20321657,-0.04328306,3.85000000,-28.25000000,-0.05000000
819,0,0.47500000,0.06000000,0.87900000,-0.04000000,-0.07000000,-0.29000000,-0.04883611,-0.20328739,-0.04357646,3.85000000,-28.25000000,-0.05000000
820,0,0.47300000,0.05800000,0.88000000,-0.17000000,0.16000000,-0.05000000,-0.04900774,-0.20312586,-0.04362694,3.85000000,-28.25000000,-0.05000000
821,0,0.47500000,0.06200000,0.87900000,-0.18000000,0.03000000,-0.04000000,-0.05898957,-0.20146222,-0.04584512,3.85000000,-28.25000000,-0.05000000
822,0,0.47100000,0.05400000,0.88000000,-0.19000000,-0.15000000,0.01000000,-0.05919040,-0.20162077,-0.04583455,3.85000000,-28.25000000,-0.05000000
823,0,0.47100000,0.05900000,0.87800000,0.10000000,0.03000000,-0.00000000,-0.05908970,-0.20159056,-0.04583455,3.85000000,-28.25000000,-0.05000000
824,0,0.47200000,0.05900000,0.88000000,0.04000000,0.01000000,-0.06000000,-0.05904971,-0.20158056,-0.04589454,3.85000000,-28.25000000,-0.05000000
825,0,0.47500000,0.05800000,0.87600000,0.01000000,0.14000000,0.09000000,-0.05903956,-0.20143846,-0.04580319,3.85000000,-28.25000000,-0.05000000
826,0,0.47200000,0.05700000,0.88100000,0.04000000,-0.02000000,-0.04000000,-0.05899946,-0.20145851,-0.04584329,3.85000000,-28.25000000,-0.05000000
