Measurement Count,IMU_MODE,Accel_X,Accel_Y,Accel_Z,Gyro_X,Gyro_Y,Gyro_Z,X_DEL_ANG,Y_DEL_ANG,Z_DEL_ANG,ROLL,PITCH,HEADING
1,0,0.23400000,-0.39200000,0.89100000,-0.16000000,-0.23000000,0.24000000,-0.00016252,-0.00023363,0.00024378,-0.00000000,-0.00000000,0.00000000
2,0,0.23600000,-0.38600000,0.89200000,0.19000000,-0.07000000,-0.10000000,0.00003292,-0.00030563,0.00014092,-23.57000000,-13.45000000,0.02000000
3,0,0.23500000,-0.38400000,0.89200000,-0.19000000,-0.07000000,0.16000000,-0.00015659,-0.00037545,0.00030050,-23.53000000,-13.51000000,0.02000000
4,0,0.23700000,-0.38500000,0.89000000,0.29000000,0.03000000,0.02000000,0.00013114,-0.00034568,0.00032035,-23.50000000,-13.50000000,0.01000000
5,0,0.23200000,-0.38800000,0.89200000,0.05000000,0.17000000,-0.01000000,0.00018073,-0.00017706,0.00031043,-23.50000000,-13.50000000,0.01000000
6,0,0.23400000,-0.38600000,0.89600000,-0.08000000,-0.22000000,0.13000000,0.00010054,-0.00039759,0.00044074,-23.55000000,-13.47000000,0.02000000
7,0,0.23200000,-0.38100000,0.89300000,-0.01000000,0.10000000,0.04000000,0.00009029,-0.00029511,0.00048174,-23.53000000,-13.48000000,0.01000000
8,0,0.23800000,-0.39100000,0.89300000,0.00000000,0.03000000,-0.19000000,0.00009029,-0.00026282,0.00027728,-23.54000000,-13.48000000,0.02000000
9,0,0.23800000,-0.38300000,0.89400000,0.17000000,0.14000000,0.12000000,0.00026618,-0.00011798,0.00040143,-23.54000000,-13.49000000,0.02000000
10,0,0.23800000,-0.38600000,0.89200000,0.27000000,-0.13000000,0.12000000,0.00054681,-0.00025310,0.00052616,-23.52000000,-13.50000000,0.01000000
11,0,0.23600000,-0.39000000,0.89100000,-0.13000000,-0.11000000,0.25000000,0.00041733,-0.00036265,0.00077515,-23.52000000,-13.51000000,0.02000000
12,0,0.22700000,-0.38800000,0.89200000,0.17000000,0.27000000,0.10000000,0.00059054,-0.00008756,0.00087704,-23.52000000,-13.51000000,0.02000000
13,0,0.23500000,-0.38900000,0.89200000,0.16000000,-0.04000000,0.13000000,0.00075535,-0.00012876,0.00101095,-23.52000000,-13.50000000,0.02000000
14,0,0.24000000,-0.38200000,0.89500000,0.14000000,0.06000000,-0.10000000,0.00090216,-0.00006584,0.00090608,-23.51000000,-13.51000000,0.01000000
15,0,0.23400000,-0.38500000,0.89100000,-0.11000000,-0.01000000,-0.05000000,0.00078917,-0.00007612,0.00085472,-23.52000000,-13.50000000,0.01000000
16,0,0.23600000,-0.39100000,0.89300000,-0.01000000,0.29000000,0.13000000,0.00077891,0.00022143,0.00098810,-23.51000000,-13.50000000,0.01000000
17,0,0.23200000,-0.38800000,0.89200000,-0.01000000,-0.05000000,-0.21000000,0.00076853,0.00016956,0.00077023,-23.51000000,-13.50000000,0.01000000
18,0,0.23600000,-0.38400000,0.89200000,0.07000000,0.21000000,-0.04000000,0.00084087,0.00038657,0.00072890,-23.50000000,-13.50000000,0.01000000
19,0,0.23500000,-0.38800000,0.89300000,-0.15000000,0.24000000,-0.04000000,0.00067889,0.00064575,0.00068570,-23.50000000,-13.50000000,0.01000000
20,0,0.23000000,-0.39000000,0.89000000,0.20000000,0.13000000,-0.03000000,0.00093850,0.00081449,0.00064676,-23.50000000,-13.49000000,0.01000000
21,0,0.23200000,-0.38800000,0.89300000,-0.01000000,-0.11000000,0.06000000,0.00092603,0.00067737,0.00072155,-23.50000000,-13.49000000,0.01000000
22,0,0.23100000,-0.38700000,0.89200000,-0.19000000,0.11000000,-0.17000000,0.00071039,0.00080222,0.00052861,-23.50000000,-13.49000000,0.01000000
23,0,0.23000000,-0.38700000,0.89100000,-0.04000000,-0.16000000,0.00000000,0.00066680,0.00062787,0.00052861,-23.49000000,-13.50000000,0.01000000
24,0,0.23400000,-0.39200000,0.89200000,-0.08000000,0.07000000,0.10000000,0.00058077,0.00070315,0.00063614,-23.50000000,-13.50000000,0.01000000
25,0,0.23100000,-0.38100000,0.89100000,0.17000000,-0.05000000,-0.12000000,0.00076293,0.00064957,0.00050756,-23.49000000,-13.50000000,0.00000000
26,0,0.23400000,-0.39100000,0.89400000,0.14000000,-0.05000000,0.18000000,0.00092393,0.00059207,0.00071456,-23.48000000,-13.50000000,0.01000000
27,0,0.23200000,-0.38800000,0.89400000,0.16000000,-0.23000000,-0.24000000,0.00110309,0.00033454,0.00044583,-23.49000000,-13.50000000,0.01000000
28,0,0.23200000,-0.38700000,0.89200000,0.16000000,0.22000000,-0.00000000,0.00406041,0.00440085,0.00044583,-23.49000000,-13.50000000,0.01000000
29,0,0.23100000,-0.38500000,0.89300000,-0.02000000,0.22000000,-0.09000000,0.00403262,0.00470657,0.00032076,-23.49000000,-13.50000000,0.01000000
30,0,0.23500000,-0.39200000,0.89200000,0.05000000,-0.11000000,-0.16000000,0.00409007,0.00458017,0.00013691,-23.49000000,-13.50000000,0.01000000
31,0,0.23500000,-0.38900000,0.89600000,-0.05000000,-0.06000000,0.12000000,0.00403805,0.00451775,0.00026175,-23.49000000,-13.50000000,0.01000000
32,0,0.23200000,-0.38800000,0.89300000,-0.13000000,-0.01000000,0.01000000,0.00390616,0.00450761,0.00027190,-23.49000000,-13.50000000,0.01000000
33,0,0.23400000,-0.38900000,0.89100000,-0.27000000,0.12000000,-0.12000000,0.00361903,0.00463522,0.00014428,-23.49000000,-13.50000000,0.01000000
34,0,0.23400000,-0.38300000,0.89500000,0.03000000,-0.07000000,0.01000000,0.00365363,0.00455447,0.00015582,-23.49000000,-13.50000000,0.00000000
35,0,0.23600000,-0.39100000,0.89400000,0.00000000,-0.01000000,0.13000000,0.00365363,0.00400578,0.00728886,-23.48000000,-13.50000000,0.00000000
36,0,0.23900000,-0.38600000,0.88800000,-0.16000000,0.04000000,0.23000000,0.00348203,0.00404868,0.00753553,-23.48000000,-13.50000000,0.01000000
37,0,0.24100000,-0.38900000,0.89800000,-0.05000000,0.26000000,0.12000000,0.00343166,0.00431061,0.00765643,-23.48000000,-13.50000000,0.01000000
38,0,0.23400000,-0.38500000,0.89200000,0.04000000,0.10000000,-0.04000000,0.00347192,0.00441125,0.00761617,-23.48000000,-13.51000000,0.00000000
39,0,0.23400000,-0.38900000,0.89200000,0.02000000,-0.30000000,-0.23000000,0.00349206,0.00410917,0.00738457,-23.48000000,-13.51000000,0.00000000
40,0,0.23900000,-0.38900000,0.89200000,-0.11000000,-0.11000000,0.10000000,0.00338012,0.00399723,0.00748634,-23.48000000,-13.51000000,0.00000000
41,0,0.23300000,-0.39000000,0.89100000,-0.02000000,-0.15000000,-0.24000000,0.00225275,-0.00445801,-0.00604204,-23.49000000,-13.51000000,0.01000000
42,0,0.23500000,-0.39000000,0.89500000,0.03000000,0.06000000,-0.06000000,0.00228454,-0.00439443,-0.00610561,-23.49000000,-13.51000000,0.01000000
43,0,0.23100000,-0.39000000,0.89000000,0.19000000,0.00000000,0.00000000,0.00247550,-0.00439443,-0.00610561,-23.49000000,-13.51000000,0.01000000
44,0,0.22900000,-0.38200000,0.88900000,-0.14000000,-0.10000000,-0.17000000,0.00222167,-0.00457573,-0.00641383,-23.49000000,-13.51000000,0.01000000
45,0,0.23400000,-0.38900000,0.89000000,-0.00000000,0.04000000,-0.32000000,0.00222167,-0.00453465,-0.00674246,-23.49000000,-13.51000000,0.01000000
46,0,0.23200000,-0.39100000,0.88900000,0.17000000,0.11000000,-0.08000000,0.00241754,-0.00440792,-0.00683463,-23.49000000,-13.51000000,0.01000000
47,0,0.22800000,-0.38500000,0.89200000,-0.02000000,0.11000000,0.02000000,0.00133324,0.00155571,-0.00575034,-23.50000000,-13.51000000,0.01000000
48,0,0.23600000,-0.38400000,0.89000000,-0.00000000,0.16000000,0.16000000,0.00133324,0.00173239,-0.00557366,-23.49000000,-13.51000000,0.01000000
49,0,0.23400000,-0.38900000,0.88600000,0.24000000,0.26000000,0.16000000,0.00157840,0.00199797,-0.00541022,-23.49000000,-13.51000000,0.01000000
50,0,0.22900000,-0.38800000,0.89500000,0.08000000,0.12000000,0.08000000,0.00165979,0.00212007,-0.00532883,-23.49000000,-13.50000000,0.01000000
51,0,0.23000000,-0.39000000,0.89200000,-0.08000000,-0.26000000,-0.00000000,0.00157351,0.00183966,-0.00532883,-23.49000000,-13.50000000,0.01000000
52,0,0.23600000,-0.38900000,0.89000000,0.16000000,0.08000000,-0.10000000,0.00178734,0.00194658,-0.00546247,-23.49000000,-13.51000000,0.01000000
53,0,0.23000000,-0.39000000,0.88800000,-0.01000000,0.05000000,-0.00000000,0.00122736,0.00474653,-0.00546247,-23.49000000,-13.50000000,0.01000000
54,0,0.23600000,-0.38900000,0.88900000,0.02000000,0.20000000,-0.26000000,0.00124816,0.00495459,-0.00573296,-23.49000000,-13.50000000,0.01000000
55,0,0.23100000,-0.38900000,0.89000000,0.11000000,0.43000000,-0.08000000,0.00135961,0.00539024,-0.00581401,-23.50000000,-13.50000000,0.01000000
56,0,0.23100000,-0.38800000,0.89100000,0.06000000,-0.21000000,-0.04000000,0.00141997,0.00517898,-0.00585425,-23.49000000,-13.50000000,0.01000000
57,0,0.22700000,-0.39000000,0.88800000,-0.17000000,-0.09000000,0.16000000,0.00124911,0.00508853,-0.00569344,-23.50000000,-13.50000000,0.01000000
58,0,0.23800000,-0.38700000,0.89100000,-0.19000000,-0.08000000,0.19000000,0.00105793,0.00500803,-0.00550226,-23.49000000,-13.50000000,0.01000000
59,0,0.23100000,-0.38800000,0.89000000,-0.08000000,0.14000000,-0.08000000,-0.00338002,0.01277445,-0.00994021,-23.49000000,-13.50000000,0.01000000
60,0,0.23100000,-0.38700000,0.89200000,-0.01000000,0.05000000,0.03000000,-0.00339047,0.01282668,-0.00990887,-23.49000000,-13.50000000,0.01000000
61,0,0.23100000,-0.38900000,0.89200000,-0.11000000,0.20000000,-0.04000000,-0.00350207,0.01302959,-0.00994945,-23.49000000,-13.50000000,0.01000000
62,0,0.23700000,-0.38700000,0.89000000,-0.01000000,-0.19000000,-0.21000000,-0.00351211,0.01283891,-0.01016021,-23.49000000,-13.50000000,0.01000000
63,0,0.23300000,-0.38900000,0.89000000,-0.15000000,-0.22000000,0.19000000,-0.00366197,0.01261911,-0.00997039,-23.49000000,-13.50000000,0.01000000
64,0,0.23600000,-0.38800000,0.89100000,0.05000000,0.02000000,-0.18000000,-0.00361161,0.01263925,-0.01015168,-23.49000000,-13.50000000,0.01000000
65,0,0.23400000,-0.38900000,0.89300000,-0.08000000,-0.14000000,-0.09000000,-0.00808059,0.00481853,-0.01517928,-23.49000000,-13.50000000,0.01000000
66,0,0.23500000,-0.38600000,0.89200000,-0.01000000,0.02000000,-0.07000000,-0.00809151,0.00484037,-0.01525571,-23.49000000,-13.50000000,0.01000000
67,0,0.23300000,-0.39300000,0.89100000,-0.08000000,-0.10000000,-0.12000000,-0.00817409,0.00473715,-0.01537958,-23.49000000,-13.50000000,0.01000000
68,0,0.23800000,-0.38800000,0.89100000,-0.26000000,-0.14000000,-0.12000000,-0.00846385,0.00458112,-0.01551331,-23.49000000,-13.50000000,0.01000000
69,0,0.23500000,-0.38700000,0.88800000,0.02000000,-0.00000000,-0.07000000,-0.00844352,0.00458112,-0.01558448,-23.49000000,-13.50000000,0.01000000
70,0,0.23600000,-0.38900000,0.89100000,-0.07000000,-0.10000000,-0.18000000,-0.00851449,0.00447973,-0.01576698,-23.49000000,-13.50000000,0.01000000
71,0,0.23200000,-0.39000000,0.89200000,-0.09000000,0.07000000,-0.01000000,-0.01354847,0.00839505,-0.01632631,-23.50000000,-13.50000000,0.01000000
72,0,0.23200000,-0.38500000,0.89300000,-0.11000000,0.18000000,0.11000000,-0.01366505,0.00858583,-0.01620972,-23.49000000,-13.50000000,0.01000000
73,0,0.23400000,-0.38700000,0.89000000,0.15000000,0.02000000,-0.06000000,-0.01351280,0.00860613,-0.01627063,-23.49000000,-13.50000000,0.01000000
74,0,0.23200000,-0.39100000,0.89200000,0.13000000,0.21000000,0.04000000,-0.01338391,0.00881433,-0.01623097,-23.49000000,-13.50000000,0.01000000
75,0,0.23000000,-0.38700000,0.89300000,-0.13000000,-0.29000000,-0.12000000,-0.01351332,0.00852564,-0.01635043,-23.49000000,-13.50000000,0.01000000
76,0,0.23200000,-0.38900000,0.89200000,0.02000000,0.13000000,-0.15000000,-0.01349340,0.00865515,-0.01649986,-23.50000000,-13.50000000,0.01000000
77,0,0.23700000,-0.38800000,0.89500000,0.08000000,0.20000000,0.06000000,-0.00905301,0.01975613,-0.01316957,-23.49000000,-13.50000000,0.01000000
78,0,0.23000000,-0.38500000,0.89000000,0.11000000,-0.12000000,-0.10000000,-0.00893474,0.01962711,-0.01327708,-23.49000000,-13.50000000,0.01000000
79,0,0.23000000,-0.38600000,0.89000000,-0.02000000,-0.00000000,-0.13000000,-0.00895494,0.01962711,-0.01340836,-23.49000000,-13.50000000,0.01000000
80,0,0.23600000,-0.39100000,0.89000000,0.23000000,-0.11000000,0.10000000,-0.00872477,0.01951703,-0.01330828,-23.49000000,-13.50000000,0.00000000
81,0,0.23100000,-0.38700000,0.89300000,0.10000000,-0.01000000,-0.22000000,-0.00862450,0.01950700,-0.01352886,-23.49000000,-13.50000000,0.00000000
82,0,0.23000000,-0.38800000,0.89500000,-0.05000000,0.04000000,-0.09000000,-0.00867475,0.01954720,-0.01361932,-23.49000000,-13.50000000,0.00000000
83,0,0.23500000,-0.38900000,0.89500000,-0.17000000,0.05000000,0.09000000,-0.01811545,0.02232388,-0.00862130,-23.49000000,-13.50000000,0.00000000
84,0,0.22900000,-0.38900000,0.89400000,0.12000000,0.28000000,0.07000000,-0.01798655,0.02262465,-0.00854611,-23.49000000,-13.50000000,0.00000000
85,0,0.23400000,-0.39000000,0.89200000,-0.15000000,-0.05000000,-0.01000000,-0.01813827,0.02257408,-0.00855622,-23.49000000,-13.50000000,0.00000000
86,0,0.23400000,-0.38900000,0.89400000,0.16000000,-0.23000000,0.07000000,-0.01797849,0.02234440,-0.00848632,-23.49000000,-13.50000000,0.00000000
87,0,0.23600000,-0.38900000,0.89100000,0.07000000,-0.21000000,-0.22000000,-0.01790841,0.02213414,-0.00870659,-23.49000000,-13.50000000,0.00000000
88,0,0.23200000,-0.38800000,0.89300000,0.22000000,-0.05000000,0.10000000,-0.01768793,0.02208403,-0.00860637,-23.49000000,-13.50000000,0.00000000
89,0,0.23100000,-0.39000000,0.88700000,0.04000000,0.13000000,0.27000000,-0.01543156,0.02941723,0.00662412,-23.48000000,-13.50000000,0.00000000
90,0,0.23300000,-0.38700000,0.89200000,0.22000000,0.04000000,0.15000000,-0.01519891,0.02945953,0.00678274,-23.48000000,-13.50000000,0.00000000
91,0,0.23400000,-0.38800000,0.89000000,-0.07000000,-0.02000000,-0.01000000,-0.01526947,0.02943937,0.00677266,-23.48000000,-13.50000000,0.00000000
92,0,0.23900000,-0.38500000,0.89300000,0.44000000,0.05000000,-0.19000000,-0.01483176,0.02948911,0.00658365,-23.48000000,-13.50000000,0.00000000
93,0,0.23500000,-0.38700000,0.88700000,-0.14000000,0.05000000,0.02000000,-0.01497250,0.02953938,0.00660376,-23.48000000,-13.50000000,0.00000000
94,0,0.23100000,-0.38900000,0.89500000,-0.00000000,0.08000000,0.17000000,-0.01497250,0.02962041,0.00677595,-23.49000000,-13.50000000,0.00000000
95,0,0.23400000,-0.38800000,0.89600000,0.16000000,0.24000000,-0.12000000,-0.00609404,0.04293809,0.00011711,-23.49000000,-13.50000000,0.00000000
96,0,0.23000000,-0.38700000,0.89200000,0.07000000,-0.29000000,0.21000000,-0.00602022,0.04263225,0.00033858,-23.48000000,-13.50000000,0.01000000
97,0,0.23500000,-0.39100000,0.89200000,0.26000000,-0.01000000,0.21000000,-0.00575854,0.04262219,0.00054994,-23.49000000,-13.50000000,0.01000000
98,0,0.23600000,-0.39200000,0.88900000,-0.04000000,0.00000000,0.29000000,-0.00579866,0.04262219,0.00084085,-23.49000000,-13.50000000,0.01000000
99,0,0.23100000,-0.38400000,0.89400000,-0.08000000,-0.08000000,0.06000000,-0.00587847,0.04254238,0.00090071,-23.49000000,-13.50000000,0.01000000
100,0,0.22900000,-0.39000000,0.89100000,0.16000000,-0.01000000,0.10000000,-0.00571671,0.04253227,0.00100180,-23.49000000,-13.50000000,0.01000000
101,0,0.22900000,-0.38700000,0.89200000,-0.05000000,-0.11000000,-0.17000000,-0.00849253,0.03642547,-0.00843597,-23.49000000,-13.50000000,0.01000000
102,0,0.23200000,-0.38400000,0.89200000,0.04000000,0.00000000,0.17000000,-0.00845003,0.03642547,-0.00825535,-23.49000000,-13.50000000,0.01000000
103,0,0.23100000,-0.39000000,0.88900000,0.08000000,-0.15000000,-0.12000000,-0.00836925,0.03627400,-0.00837653,-23.49000000,-13.50000000,0.01000000
104,0,0.23500000,-0.38800000,0.89200000,-0.08000000,0.10000000,-0.15000000,-0.00844933,0.03637410,-0.00852667,-23.49000000,-13.50000000,0.01000000
105,0,0.23100000,-0.38700000,0.89600000,-0.09000000,-0.10000000,-0.07000000,-0.00854044,0.03627285,-0.00859754,-23.49000000,-13.50000000,0.01000000
106,0,0.22900000,-0.39000000,0.89000000,-0.17000000,-0.34000000,-0.08000000,-0.00871596,0.03592182,-0.00868014,-23.49000000,-13.50000000,0.01000000
107,0,0.22800000,-0.38600000,0.89200000,0.06000000,0.00000000,-0.01000000,-0.00532893,0.03592182,-0.00924464,-23.49000000,-13.50000000,0.01000000
108,0,0.23200000,-0.38800000,0.89100000,0.15000000,0.08000000,0.27000000,-0.00516402,0.03600977,-0.00894779,-23.49000000,-13.50000000,0.01000000
109,0,0.23700000,-0.38700000,0.89100000,0.16000000,-0.18000000,-0.01000000,-0.00500149,0.03582694,-0.00895795,-23.49000000,-13.50000000,0.01000000
110,0,0.23400000,-0.38900000,0.89400000,-0.24000000,0.23000000,-0.00000000,-0.00524442,0.03605974,-0.00895795,-23.49000000,-13.50000000,0.01000000
111,0,0.23600000,-0.38900000,0.89700000,0.43000000,0.24000000,-0.00000000,-0.00481430,0.03629980,-0.00895795,-23.49000000,-13.50000000,0.01000000
112,0,0.23400000,-0.38400000,0.89200000,0.13000000,-0.07000000,0.05000000,-0.00468352,0.03622939,-0.00890765,-23.49000000,-13.50000000,0.01000000
113,0,0.23500000,-0.38800000,0.88900000,-0.16000000,-0.05000000,-0.16000000,-0.01354554,0.03346001,-0.01776967,-23.49000000,-13.50000000,0.01000000
114,0,0.23400000,-0.39000000,0.88800000,0.14000000,0.13000000,-0.03000000,-0.01339769,0.03359729,-0.01780135,-23.49000000,-13.49000000,0.01000000
115,0,0.23200000,-0.38600000,0.89200000,-0.23000000,-0.07000000,0.25000000,-0.01362912,0.03352686,-0.01754979,-23.49000000,-13.49000000,0.01000000
116,0,0.23100000,-0.38700000,0.89300000,0.29000000,-0.15000000,-0.04000000,-0.01333614,0.03337531,-0.01759020,-23.49000000,-13.49000000,0.01000000
117,0,0.23300000,-0.39200000,0.89400000,-0.03000000,-0.13000000,0.13000000,-0.01336652,0.03324370,-0.01745859,-23.49000000,-13.49000000,0.01000000
118,0,0.23400000,-0.38600000,0.89400000,-0.06000000,0.01000000,0.15000000,-0.01342679,0.03325374,-0.01730790,-23.49000000,-13.50000000,0.01000000
119,0,0.23700000,-0.38500000,0.88900000,-0.04000000,0.09000000,-0.11000000,-0.01565264,0.03826191,-0.02342899,-23.49000000,-13.50000000,0.01000000
120,0,0.23600000,-0.38600000,0.88700000,0.02000000,-0.01000000,-0.13000000,-0.01563159,0.03825138,-0.02356585,-23.49000000,-13.50000000,0.01000000
121,0,0.23500000,-0.38600000,0.88800000,-0.06000000,-0.05000000,0.11000000,-0.01569213,0.03820093,-0.02345485,-23.49000000,-13.50000000,0.01000000
122,0,0.23100000,-0.39000000,0.88800000,-0.07000000,0.32000000,-0.01000000,-0.01576295,0.03852468,-0.02346497,-23.49000000,-13.49000000,0.01000000
123,0,0.23200000,-0.38600000,0.89600000,0.01000000,0.02000000,-0.17000000,-0.01575294,0.03854469,-0.02363509,-23.49000000,-13.50000000,0.01000000
124,0,0.23500000,-0.39400000,0.89400000,-0.10000000,-0.13000000,0.12000000,-0.01585330,0.03841422,-0.02351466,-23.49000000,-13.49000000,0.01000000
125,0,0.22800000,-0.38900000,0.89000000,-0.18000000,0.06000000,-0.21000000,-0.02600006,0.04179647,-0.03535254,-23.49000000,-13.49000000,0.01000000
126,0,0.23400000,-0.39300000,0.89300000,-0.29000000,0.04000000,0.08000000,-0.02639454,0.04185088,-0.03524371,-23.49000000,-13.50000000,0.01000000
127,0,0.23800000,-0.38900000,0.89100000,0.06000000,-0.10000000,0.02000000,-0.02631559,0.04171931,-0.03521740,-23.49000000,-13.50000000,0.01000000
128,0,0.23700000,-0.38500000,0.88900000,0.03000000,-0.11000000,0.09000000,-0.02627662,0.04157642,-0.03510049,-23.49000000,-13.50000000,0.01000000
129,0,0.23800000,-0.38600000,0.89400000,-0.17000000,-0.10000000,0.04000000,-0.02649673,0.04144695,-0.03504870,-23.49000000,-13.50000000,0.01000000
130,0,0.23600000,-0.38300000,0.89700000,0.23000000,0.10000000,0.12000000,-0.02618556,0.04158224,-0.03488635,-23.49000000,-13.50000000,0.01000000
131,0,0.23400000,-0.38600000,0.89100000,0.10000000,-0.05000000,0.11000000,-0.02079352,0.03888622,-0.02895511,-23.49000000,-13.50000000,0.01000000
132,0,0.23300000,-0.38800000,0.89200000,-0.23000000,0.04000000,0.02000000,-0.02110650,0.03894065,-0.02892790,-23.49000000,-13.50000000,0.01000000
133,0,0.22900000,-0.39100000,0.89600000,-0.17000000,-0.04000000,0.03000000,-0.02133406,0.03888711,-0.02888774,-23.49000000,-13.49000000,0.01000000
134,0,0.23900000,-0.38900000,0.89000000,-0.18000000,-0.17000000,-0.11000000,-0.02157118,0.03866316,-0.02903265,-23.49000000,-13.50000000,0.01000000
135,0,0.23400000,-0.38900000,0.89000000,0.31000000,-0.01000000,-0.15000000,-0.02114521,0.03864942,-0.02923877,-23.49000000,-13.49000000,0.01000000
136,0,0.22700000,-0.38600000,0.89000000,-0.11000000,0.17000000,-0.12000000,-0.02130245,0.03889242,-0.02941030,-23.49000000,-13.50000000,0.01000000
137,0,0.23500000,-0.38900000,0.89300000,0.11000000,-0.02000000,-0.18000000,-0.01535516,0.03781109,-0.03914223,-23.50000000,-13.49000000,0.01000000
138,0,0.23500000,-0.38800000,0.89300000,-0.15000000,-0.16000000,0.14000000,-0.01556628,0.03758589,-0.03894518,-23.50000000,-13.49000000,0.01000000
139,0,0.23500000,-0.39000000,0.89800000,0.26000000,0.12000000,-0.06000000,-0.01521831,0.03774650,-0.03902548,-23.50000000,-13.50000000,0.01000000
140,0,0.23000000,-0.39500000,0.89000000,0.23000000,0.15000000,0.08000000,-0.01491647,0.03794335,-0.03892049,-23.50000000,-13.49000000,0.01000000
141,0,0.23300000,-0.39100000,0.89000000,0.11000000,0.01000000,-0.21000000,-0.01469566,0.03796342,-0.03934203,-23.50000000,-13.49000000,0.01000000
142,0,0.22900000,-0.38500000,0.88900000,-0.12000000,0.19000000,0.12000000,-0.01487311,0.03824439,-0.03916458,-23.50000000,-13.49000000,0.01000000
143,0,0.23800000,-0.38800000,0.89600000,0.04000000,-0.08000000,-0.09000000,-0.01272663,0.03395144,-0.04399416,-23.50000000,-13.49000000,0.01000000
144,0,0.23700000,-0.38900000,0.88900000,0.02000000,0.06000000,-0.08000000,-0.01269938,0.03403320,-0.04410317,-23.50000000,-13.49000000,0.01000000
145,0,0.23600000,-0.38500000,0.88700000,0.07000000,-0.04000000,0.22000000,-0.01260807,0.03398102,-0.04381618,-23.50000000,-13.49000000,0.01000000
146,0,0.23200000,-0.38500000,0.89000000,0.10000000,-0.14000000,-0.03000000,-0.01247769,0.03379849,-0.04385529,-23.50000000,-13.49000000,0.01000000
147,0,0.23300000,-0.38900000,0.89500000,0.16000000,0.02000000,-0.34000000,-0.01226931,0.03382453,-0.04429809,-23.50000000,-13.49000000,0.01000000
148,0,0.23500000,-0.38900000,0.89400000,-0.01000000,0.06000000,-0.02000000,-0.01228252,0.03390376,-0.04432450,-23.50000000,-13.49000000,0.01000000
149,0,0.22800000,-0.38500000,0.88800000,-0.06000000,0.06000000,-0.11000000,-0.01570527,0.03732651,-0.05059954,-23.50000000,-13.49000000,0.01000000
150,0,0.23600000,-0.38900000,0.88900000,-0.26000000,0.19000000,0.10000000,-0.01606260,0.03758764,-0.05046210,-23.50000000,-13.49000000,0.01000000
151,0,0.23400000,-0.38600000,0.89000000,-0.11000000,-0.09000000,0.02000000,-0.01620724,0.03746929,-0.05043580,-23.50000000,-13.49000000,0.01000000
152,0,0.23100000,-0.39000000,0.89300000,-0.02000000,-0.01000000,-0.21000000,-0.01623351,0.03745615,-0.05071165,-23.50000000,-13.49000000,0.01000000
153,0,0.23300000,-0.38900000,0.89200000,-0.15000000,-0.13000000,-0.18000000,-0.01642944,0.03728635,-0.05094676,-23.50000000,-13.49000000,0.01000000
154,0,0.23600000,-0.38800000,0.89300000,0.16000000,-0.20000000,0.06000000,-0.01621851,0.03702269,-0.05086766,-23.50000000,-13.49000000,0.01000000
155,0,0.23100000,-0.38600000,0.89200000,-0.11000000,-0.17000000,-0.27000000,-0.01636342,0.03679874,-0.05122335,-23.50000000,-13.49000000,0.01000000
156,0,0.23100000,-0.38700000,0.89200000,-0.09000000,-0.08000000,-0.12000000,-0.02121393,0.03248717,-0.05769070,-23.50000000,-13.49000000,0.01000000
157,0,0.22700000,-0.38600000,0.88900000,0.13000000,-0.17000000,0.12000000,-0.02102826,0.03224437,-0.05751931,-23.50000000,-13.49000000,0.01000000
158,0,0.23100000,-0.38800000,0.89300000,0.05000000,0.15000000,0.20000000,-0.02096137,0.03244505,-0.05725174,-23.50000000,-13.49000000,0.01000000
159,0,0.22900000,-0.38500000,0.89000000,-0.12000000,0.25000000,-0.18000000,-0.02111742,0.03277016,-0.05748582,-23.50000000,-13.49000000,0.01000000
160,0,0.23300000,-0.39300000,0.88900000,0.16000000,0.13000000,-0.03000000,-0.02090470,0.03294300,-0.05752571,-23.50000000,-13.49000000,0.01000000
161,0,0.23100000,-0.38400000,0.89200000,0.05000000,-0.11000000,0.19000000,-0.02083473,0.03278906,-0.05725982,-23.50000000,-13.49000000,0.01000000
162,0,0.23400000,-0.38500000,0.89100000,-0.21000000,-0.02000000,0.05000000,-0.03230841,0.03169633,-0.05452799,-23.50000000,-13.49000000,0.01000000
163,0,0.22800000,-0.38900000,0.89100000,0.19000000,-0.17000000,0.18000000,-0.03204969,0.03146484,-0.05428289,-23.50000000,-13.49000000,0.01000000
164,0,0.23900000,-0.39000000,0.89100000,-0.02000000,0.08000000,0.03000000,-0.03207561,0.03156855,-0.05424399,-23.50000000,-13.49000000,0.01000000
165,0,0.23100000,-0.38800000,0.88800000,0.07000000,0.13000000,0.01000000,-0.03198470,0.03173739,-0.05423101,-23.50000000,-13.48000000,0.01000000
166,0,0.24100000,-0.39000000,0.89200000,-0.09000000,-0.19000000,-0.06000000,-0.03210183,0.03149013,-0.05430909,-23.50000000,-13.48000000,0.01000000
167,0,0.23000000,-0.39200000,0.89300000,0.07000000,-0.00000000,-0.35000000,-0.03200901,0.03149013,-0.05477317,-23.50000000,-13.48000000,0.01000000
168,0,0.23200000,-0.38500000,0.88900000,0.01000000,-0.04000000,0.00000000,-0.03146751,0.02932414,-0.05477317,-23.50000000,-13.48000000,0.01000000
169,0,0.23000000,-0.38900000,0.89000000,0.06000000,0.11000000,-0.07000000,-0.03137179,0.02949963,-0.05488485,-23.50000000,-13.48000000,0.01000000
170,0,0.23100000,-0.38600000,0.89200000,0.02000000,-0.11000000,-0.18000000,-0.03134403,0.02934695,-0.05513468,-23.50000000,-13.48000000,0.01000000
171,0,0.23200000,-0.39100000,0.89100000,0.28000000,-0.23000000,0.15000000,-0.03095808,0.02902992,-0.05492792,-23.50000000,-13.48000000,0.01000000
172,0,0.23500000,-0.38800000,0.89200000,-0.09000000,-0.32000000,0.11000000,-0.03108241,0.02858784,-0.05477595,-23.50000000,-13.48000000,0.01000000
173,0,0.23500000,-0.39100000,0.89100000,-0.01000000,0.08000000,-0.05000000,-0.03109657,0.02870105,-0.05484671,-23.50000000,-13.49000000,0.01000000
174,0,0.23400000,-0.38900000,0.89400000,0.04000000,-0.06000000,0.00000000,-0.02896339,0.02550129,-0.05484671,-23.50000000,-13.49000000,0.01000000
175,0,0.23300000,-0.38900000,0.89400000,-0.08000000,-0.28000000,0.07000000,-0.02907862,0.02509798,-0.05474588,-23.50000000,-13.49000000,0.01000000
176,0,0.23300000,-0.38600000,0.88700000,0.08000000,0.08000000,0.04000000,-0.02896927,0.02520734,-0.05469120,-23.50000000,-13.49000000,0.01000000
177,0,0.23700000,-0.38500000,0.89000000,-0.09000000,0.04000000,0.20000000,-0.02910043,0.02526563,-0.05439974,-23.50000000,-13.49000000,0.01000000
178,0,0.23700000,-0.39100000,0.88900000,0.13000000,0.10000000,-0.19000000,-0.02891163,0.02541086,-0.05467568,-23.50000000,-13.49000000,0.01000000
179,0,0.23600000,-0.38600000,0.89100000,-0.12000000,-0.09000000,0.09000000,-0.02907589,0.02528767,-0.05455248,-23.50000000,-13.49000000,0.01000000
180,0,0.23400000,-0.38700000,0.89200000,-0.27000000,-0.04000000,-0.13000000,-0.04375895,0.02311240,-0.06162210,-23.50000000,-13.49000000,0.01000000
181,0,0.23400000,-0.38500000,0.89400000,-0.03000000,0.18000000,0.07000000,-0.04379939,0.02335502,-0.06152775,-23.50000000,-13.49000000,0.01000000
182,0,0.23700000,-0.38800000,0.88900000,-0.27000000,-0.01000000,0.15000000,-0.04414993,0.02334203,-0.06133301,-23.50000000,-13.49000000,0.01000000
183,0,0.23600000,-0.38900000,0.89100000,0.01000000,0.01000000,-0.15000000,-0.04413688,0.02335508,-0.06152868,-23.50000000,-13.49000000,0.01000000
184,0,0.23300000,-0.38600000,0.88900000,-0.16000000,0.08000000,-0.20000000,-0.04434743,0.02346035,-0.06179187,-23.50000000,-13.49000000,0.01000000
185,0,0.23500000,-0.38300000,0.89200000,-0.12000000,0.27000000,-0.08000000,-0.04450460,0.02381398,-0.06189665,-23.50000000,-13.49000000,0.01000000
186,0,0.23800000,-0.38700000,0.88900000,-0.17000000,-0.20000000,0.01000000,-0.05368484,0.01301369,-0.06135663,-23.50000000,-13.49000000,0.01000000
187,0,0.23300000,-0.38500000,0.88900000,-0.12000000,-0.16000000,-0.01000000,-0.05385557,0.01278605,-0.06137086,-23.50000000,-13.49000000,0.01000000
188,0,0.23300000,-0.38400000,0.89200000,0.14000000,0.15000000,-0.02000000,-0.05366537,0.01298985,-0.06139803,-23.50000000,-13.49000000,0.01000000
189,0,0.23600000,-0.39100000,0.89100000,-0.25000000,0.20000000,-0.19000000,-0.05400997,0.01326553,-0.06165993,-23.50000000,-13.49000000,0.00000000
190,0,0.23500000,-0.38600000,0.89300000,0.01000000,0.18000000,0.14000000,-0.05399630,0.01351149,-0.06146862,-23.50000000,-13.49000000,0.01000000
191,0,0.23500000,-0.38800000,0.89100000,0.05000000,0.13000000,-0.04000000,-0.05392826,0.01368839,-0.06152305,-23.50000000,-13.49000000,0.01000000
192,0,0.23000000,-0.38700000,0.89600000,0.11000000,0.07000000,-0.05000000,-0.04799983,0.01746103,-0.06421779,-23.50000000,-13.49000000,0.00000000
193,0,0.23700000,-0.38600000,0.88800000,0.29000000,-0.00000000,-0.08000000,-0.04756877,0.01746103,-0.06433671,-23.50000000,-13.49000000,0.00000000
194,0,0.23100000,-0.38700000,0.89200000,-0.34000000,-0.06000000,-0.08000000,-0.04804602,0.01737681,-0.06444900,-23.50000000,-13.49000000,0.00000000
195,0,0.23300000,-0.38900000,0.89200000,0.26000000,0.21000000,-0.16000000,-0.04768479,0.01766858,-0.06467130,-23.50000000,-13.49000000,0.00000000
196,0,0.23500000,-0.38900000,0.89300000,-0.18000000,0.10000000,0.03000000,-0.04793633,0.01780833,-0.06462937,-23.50000000,-13.49000000,0.00000000
197,0,0.23100000,-0.38700000,0.89200000,0.07000000,0.16000000,0.10000000,-0.04783437,0.01804138,-0.06448371,-23.50000000,-13.49000000,0.00000000
198,0,0.23100000,-0.39100000,0.89200000,0.07000000,-0.09000000,-0.04000000,-0.04404566,0.01317018,-0.06664869,-23.50000000,-13.49000000,0.00000000
199,0,0.23000000,-0.39100000,0.88400000,-0.22000000,-0.04000000,0.12000000,-0.04437057,0.01311111,-0.06647147,-23.50000000,-13.49000000,0.00000000
200,0,0.23800000,-0.39100000,0.89100000,0.11000000,0.17000000,-0.16000000,-0.04421470,0.01335200,-0.06669819,-23.49000000,-13.49000000,0.00000000
201,0,0.23000000,-0.38700000,0.89200000,0.12000000,0.21000000,0.00000000,-0.04404877,0.01364237,-0.06669819,-23.49000000,-13.49000000,0.00000000
202,0,0.23500000,-0.38900000,0.89400000,0.19000000,0.00000000,0.22000000,-0.04378294,0.01364237,-0.06639038,-23.50000000,-13.49000000,0.01000000
203,0,0.23200000,-0.38400000,0.88900000,-0.03000000,0.02000000,-0.17000000,-0.04382654,0.01367144,-0.06663748,-23.50000000,-13.49000000,0.01000000
204,0,0.23500000,-0.39300000,0.89600000,0.02000000,-0.05000000,-0.01000000,-0.04275710,0.01099784,-0.06717220,-23.50000000,-13.48000000,0.01000000
205,0,0.23600000,-0.38900000,0.88800000,0.08000000,-0.18000000,-0.02000000,-0.04264103,0.01073668,-0.06720121,-23.49000000,-13.49000000,0.01000000
206,0,0.23300000,-0.38500000,0.88800000,0.10000000,0.23000000,0.01000000,-0.04249726,0.01106737,-0.06718683,-23.50000000,-13.49000000,0.01000000
207,0,0.23100000,-0.38600000,0.89200000,0.07000000,0.07000000,0.10000000,-0.04240052,0.01116411,-0.06704864,-23.50000000,-13.49000000,0.01000000
208,0,0.23700000,-0.39100000,0.89000000,-0.19000000,0.02000000,-0.00000000,-0.04267319,0.01119281,-0.06704864,-23.49000000,-13.48000000,0.01000000
209,0,0.23300000,-0.38800000,0.88900000,-0.10000000,-0.17000000,-0.22000000,-0.04282529,0.01093424,-0.06738325,-23.49000000,-13.49000000,0.01000000
210,0,0.23600000,-0.39100000,0.89700000,0.09000000,0.07000000,-0.03000000,-0.03800589,0.01468267,-0.06898972,-23.49000000,-13.49000000,0.01000000
211,0,0.22900000,-0.39100000,0.89300000,0.18000000,-0.01000000,0.15000000,-0.03773452,0.01466759,-0.06876358,-23.49000000,-13.49000000,0.01000000
212,0,0.23300000,-0.37900000,0.89000000,-0.01000000,0.02000000,-0.19000000,-0.03774942,0.01469740,-0.06904676,-23.49000000,-13.49000000,0.01000000
213,0,0.23300000,-0.38700000,0.88900000,-0.22000000,0.07000000,0.07000000,-0.03807528,0.01480108,-0.06894308,-23.49000000,-13.49000000,0.01000000
214,0,0.23900000,-0.38800000,0.88500000,-0.03000000,-0.16000000,0.07000000,-0.03811872,0.01456936,-0.06884170,-23.49000000,-13.49000000,0.01000000
215,0,0.23700000,-0.39000000,0.88800000,-0.04000000,0.16000000,-0.20000000,-0.03818059,0.01481684,-0.06915105,-23.49000000,-13.49000000,0.01000000
216,0,0.23900000,-0.39100000,0.89100000,-0.05000000,0.10000000,-0.15000000,-0.04087538,0.02020642,-0.07723542,-23.49000000,-13.49000000,0.01000000
217,0,0.23700000,-0.38800000,0.89300000,-0.07000000,0.07000000,-0.15000000,-0.04098199,0.02031302,-0.07746385,-23.49000000,-13.49000000,0.00000000
218,0,0.23200000,-0.38900000,0.89200000,0.19000000,0.07000000,-0.15000000,-0.04070641,0.02041455,-0.07768141,-23.49000000,-13.49000000,0.00000000
219,0,0.23400000,-0.38600000,0.89400000,0.24000000,-0.06000000,-0.04000000,-0.04037559,0.02033184,-0.07773655,-23.49000000,-13.49000000,0.00000000
220,0,0.23900000,-0.39200000,0.89100000,0.10000000,-0.21000000,-0.00000000,-0.04023916,0.02004533,-0.07773655,-23.49000000,-13.49000000,0.00000000
221,0,0.23600000,-0.38800000,0.89500000,0.23000000,0.16000000,-0.19000000,-0.03992076,0.02026683,-0.07799958,-23.49000000,-13.49000000,0.00000000
222,0,0.23400000,-0.38600000,0.89300000,0.18000000,0.08000000,-0.17000000,-0.03029933,0.02454302,-0.08708648,-23.49000000,-13.49000000,0.00000000
223,0,0.23100000,-0.39100000,0.89400000,0.13000000,-0.16000000,0.09000000,-0.03010808,0.02430764,-0.08695408,-23.49000000,-13.49000000,0.00000000
224,0,0.23400000,-0.38800000,0.89200000,-0.06000000,0.16000000,-0.18000000,-0.03019115,0.02452913,-0.08720326,-23.49000000,-13.49000000,0.00000000
225,0,0.23300000,-0.38500000,0.89500000,-0.09000000,-0.03000000,-0.08000000,-0.03031778,0.02448692,-0.08731582,-23.49000000,-13.49000000,0.00000000
226,0,0.23000000,-0.39000000,0.89200000,-0.00000000,-0.23000000,0.01000000,-0.03031778,0.02416945,-0.08730202,-23.49000000,-13.49000000,0.00000000
227,0,0.23300000,-0.38600000,0.89200000,-0.05000000,0.03000000,-0.11000000,-0.03041664,0.02422877,-0.08751952,-23.49000000,-13.49000000,0.00000000
228,0,0.22800000,-0.38600000,0.89000000,-0.03000000,-0.10000000,0.22000000,-0.03201059,0.01891563,-0.07583060,-23.49000000,-13.49000000,0.00000000
229,0,0.23500000,-0.38500000,0.89300000,0.18000000,0.11000000,-0.05000000,-0.03176745,0.01906421,-0.07589814,-23.49000000,-13.49000000,0.00000000
230,0,0.23000000,-0.38600000,0.89100000,-0.02000000,-0.01000000,0.00000000,-0.03179263,0.01905162,-0.07589814,-23.49000000,-13.49000000,0.00000000
231,0,0.23200000,-0.38800000,0.89400000,0.09000000,0.21000000,-0.00000000,-0.03168044,0.01931340,-0.07589814,-23.49000000,-13.49000000,0.00000000
232,0,0.23400000,-0.39000000,0.89000000,-0.10000000,0.05000000,0.12000000,-0.03181222,0.01937929,-0.07574000,-23.49000000,-13.49000000,0.00000000
233,0,0.23700000,-0.38600000,0.89200000,0.16000000,0.15000000,0.07000000,-0.03160862,0.01957017,-0.07565092,-23.49000000,-13.49000000,0.00000000
234,0,0.23800000,-0.39000000,0.89200000,-0.04000000,0.03000000,-0.10000000,-0.03380328,0.02121617,-0.08113759,-23.49000000,-13.49000000,0.00000000
235,0,0.23400000,-0.38900000,0.89000000,0.13000000,0.31000000,0.06000000,-0.03361603,0.02166269,-0.08105116,-23.49000000,-13.49000000,0.00000000
236,0,0.22800000,-0.38800000,0.89500000,-0.04000000,0.06000000,-0.14000000,-0.03366685,0.02173892,-0.08122902,-23.49000000,-13.49000000,0.00000000
237,0,0.23900000,-0.38800000,0.89200000,-0.03000000,0.03000000,0.23000000,-0.03370646,0.02177853,-0.08092531,-23.49000000,-13.49000000,0.00000000
238,0,0.23500000,-0.38400000,0.88900000,0.02000000,-0.09000000,-0.02000000,-0.03368022,0.02166042,-0.08095156,-23.49000000,-13.49000000,0.00000000
239,0,0.23100000,-0.39100000,0.88800000,0.10000000,0.30000000,-0.10000000,-0.03354497,0.02206614,-0.08108680,-23.49000000,-13.49000000,0.00000000
240,0,0.23800000,-0.38900000,0.89500000,0.22000000,0.08000000,0.11000000,-0.02172676,0.02636367,-0.07517770,-23.49000000,-13.49000000,0.00000000
241,0,0.23300000,-0.38500000,0.89300000,0.05000000,-0.11000000,-0.01000000,-0.02165809,0.02621260,-0.07519143,-23.49000000,-13.49000000,0.00000000
242,0,0.23700000,-0.38700000,0.89000000,0.16000000,0.19000000,0.01000000,-0.02144762,0.02646254,-0.07517827,-23.49000000,-13.49000000,0.00000000
243,0,0.22800000,-0.38400000,0.89000000,-0.08000000,0.05000000,0.12000000,-0.02155419,0.02652914,-0.07501842,-23.49000000,-13.49000000,0.00000000
244,0,0.23200000,-0.39200000,0.88800000,-0.13000000,0.02000000,0.01000000,-0.02172697,0.02655572,-0.07500513,-23.49000000,-13.49000000,0.00000000
245,0,0.23900000,-0.38400000,0.89300000,0.01000000,0.09000000,0.22000000,-0.02171373,0.02667485,-0.07471394,-23.49000000,-13.49000000,0.00000000
246,0,0.23400000,-0.38500000,0.89300000,0.25000000,0.01000000,-0.09000000,-0.00796655,0.02722473,-0.07966293,-23.49000000,-13.49000000,0.00000000
247,0,0.22900000,-0.39300000,0.88800000,-0.02000000,-0.14000000,0.19000000,-0.00799327,0.02703770,-0.07940909,-23.49000000,-13.49000000,0.01000000
248,0,0.23700000,-0.38900000,0.88700000,-0.02000000,0.01000000,0.04000000,-0.00801822,0.02705017,-0.07935919,-23.49000000,-13.49000000,0.01000000
249,0,0.23300000,-0.39100000,0.89200000,-0.08000000,0.06000000,0.05000000,-0.00811682,0.02712412,-0.07929757,-23.49000000,-13.49000000,0.01000000
250,0,0.23600000,-0.38500000,0.89300000,0.02000000,-0.15000000,0.12000000,-0.00809196,0.02693771,-0.07914844,-23.49000000,-13.49000000,0.01000000
251,0,0.23300000,-0.39000000,0.89400000,-0.08000000,0.17000000,-0.06000000,-0.00819545,0.02715761,-0.07922605,-23.49000000,-13.49000000,0.00000000
252,0,0.23100000,-0.39100000,0.89200000,-0.25000000,-0.09000000,0.06000000,-0.02174569,0.02227952,-0.07597399,-23.49000000,-13.49000000,0.01000000
253,0,0.22800000,-0.38500000,0.89500000,0.26000000,-0.23000000,0.06000000,-0.02139493,0.02196923,-0.07589305,-23.49000000,-13.49000000,0.00000000
254,0,0.23600000,-0.38800000,0.88600000,0.13000000,-0.03000000,0.04000000,-0.02122702,0.02193049,-0.07584138,-23.49000000,-13.49000000,0.00000000
255,0,0.23700000,-0.39000000,0.89000000,0.10000000,-0.26000000,0.02000000,-0.02109922,0.02159820,-0.07581582,-23.49000000,-13.49000000,0.01000000
256,0,0.23600000,-0.39000000,0.88900000,0.05000000,-0.06000000,-0.15000000,-0.02103522,0.02152140,-0.07600781,-23.49000000,-13.49000000,0.01000000
257,0,0.23500000,-0.39000000,0.88900000,0.05000000,-0.04000000,-0.12000000,-0.02097196,0.02147079,-0.07615966,-23.49000000,-13.49000000,0.00000000
258,0,0.23400000,-0.38600000,0.88900000,-0.03000000,-0.01000000,-0.02000000,-0.02259168,0.02093088,-0.07723948,-23.49000000,-13.49000000,0.00000000
259,0,0.23500000,-0.39100000,0.89300000,0.25000000,-0.15000000,-0.27000000,-0.02225030,0.02072605,-0.07760817,-23.49000000,-13.50000000,0.00000000
260,0,0.23000000,-0.38900000,0.89300000,0.12000000,-0.07000000,-0.04000000,-0.02209393,0.02063483,-0.07766029,-23.49000000,-13.50000000,0.00000000
261,0,0.23300000,-0.39000000,0.88900000,0.17000000,0.00000000,0.05000000,-0.02187404,0.02063483,-0.07759562,-23.49000000,-13.50000000,0.00000000
262,0,0.24200000,-0.38500000,0.88900000,0.20000000,-0.04000000,0.18000000,-0.02160732,0.02058149,-0.07735557,-23.49000000,-13.50000000,0.00000000
263,0,0.23600000,-0.38900000,0.89200000,-0.12000000,0.19000000,-0.24000000,-0.02176875,0.02083709,-0.07767844,-23.49000000,-13.50000000,0.00000000
264,0,0.23200000,-0.39400000,0.89100000,-0.05000000,-0.00000000,-0.06000000,-0.02451869,0.02083709,-0.08097836,-23.49000000,-13.50000000,0.00000000
265,0,0.23600000,-0.39100000,0.88900000,-0.00000000,-0.07000000,0.21000000,-0.02451869,0.02073828,-0.08068194,-23.49000000,-13.50000000,0.00000000
266,0,0.23300000,-0.38700000,0.88900000,-0.14000000,0.11000000,0.17000000,-0.02470208,0.02088238,-0.08045924,-23.49000000,-13.50000000,0.00000000
267,0,0.23300000,-0.38700000,0.88900000,0.30000000,0.05000000,-0.06000000,-0.02430595,0.02094840,-0.08053847,-23.49000000,-13.50000000,0.00000000
268,0,0.23500000,-0.38800000,0.89100000,-0.08000000,-0.10000000,-0.12000000,-0.02440989,0.02081848,-0.08069438,-23.49000000,-13.50000000,0.00000000
269,0,0.23700000,-0.39100000,0.88600000,0.01000000,-0.10000000,0.12000000,-0.02437887,0.02050829,-0.08032215,-23.49000000,-13.50000000,0.00000000
270,0,0.23500000,-0.38700000,0.89100000,0.19000000,0.05000000,-0.09000000,-0.01449399,0.02310957,-0.08500446,-23.49000000,-13.49000000,0.00000000
271,0,0.22900000,-0.39000000,0.89300000,0.23000000,0.04000000,-0.02000000,-0.01416808,0.02316625,-0.08503280,-23.49000000,-13.50000000,0.00000000
272,0,0.23500000,-0.38700000,0.89500000,0.18000000,-0.32000000,0.00000000,-0.01392919,0.02274156,-0.08503280,-23.49000000,-13.50000000,0.00000000
273,0,0.22700000,-0.38400000,0.89200000,-0.18000000,0.02000000,-0.06000000,-0.01416799,0.02276810,-0.08511240,-23.49000000,-13.50000000,0.00000000
274,0,0.23400000,-0.39300000,0.89400000,0.03000000,0.10000000,-0.09000000,-0.01412807,0.02290115,-0.08523214,-23.49000000,-13.50000000,0.00000000
275,0,0.23300000,-0.39100000,0.89200000,-0.20000000,-0.23000000,-0.12000000,-0.01440666,0.02258077,-0.08539929,-23.49000000,-13.50000000,0.00000000
276,0,0.23300000,-0.38600000,0.89100000,0.23000000,-0.05000000,0.21000000,-0.00136833,0.01974635,-0.07349473,-23.50000000,-13.50000000,0.00000000
277,0,0.23500000,-0.39000000,0.89200000,-0.09000000,-0.02000000,0.06000000,-0.00149429,0.01971836,-0.07341075,-23.50000000,-13.50000000,0.00000000
278,0,0.23500000,-0.38800000,0.89300000,0.19000000,-0.10000000,0.11000000,-0.00124662,0.01958800,-0.07326736,-23.50000000,-13.50000000,0.00000000
279,0,0.23100000,-0.38800000,0.89200000,-0.03000000,0.06000000,-0.02000000,-0.00128547,0.01966570,-0.07329326,-23.50000000,-13.50000000,0.00000000
280,0,0.23000000,-0.38800000,0.89200000,0.11000000,-0.24000000,-0.20000000,-0.00113972,0.01934770,-0.07355826,-23.49000000,-13.50000000,0.00000000
281,0,0.22600000,-0.38800000,0.89600000,-0.04000000,-0.09000000,-0.01000000,-0.00119161,0.01923096,-0.07357123,-23.49000000,-13.50000000,0.00000000
282,0,0.23600000,-0.38600000,0.89100000,-0.13000000,-0.01000000,-0.04000000,-0.00136014,0.01921800,-0.07362308,-23.50000000,-13.50000000,-0.00000000
283,0,0.23400000,-0.38600000,0.89200000,0.07000000,0.21000000,-0.04000000,0.00248193,0.03074420,-0.07581855,-23.50000000,-13.50000000,-0.00000000
284,0,0.24000000,-0.38900000,0.89500000,0.10000000,0.23000000,0.26000000,0.00261548,0.03105136,-0.07547133,-23.50000000,-13.50000000,-0.00000000
285,0,0.23200000,-0.38700000,0.88900000,0.20000000,0.01000000,-0.08000000,0.00287666,0.03106442,-0.07557580,-23.50000000,-13.50000000,0.00000000
286,0,0.23500000,-0.38700000,0.89100000,-0.02000000,-0.06000000,-0.33000000,0.00285073,0.03098661,-0.07600376,-23.50000000,-13.50000000,0.00000000
287,0,0.23500000,-0.38500000,0.89500000,-0.23000000,-0.01000000,0.04000000,0.00255272,0.03097365,-0.07595194,-23.50000000,-13.50000000,-0.00000000
288,0,0.23500000,-0.39100000,0.89400000,0.03000000,-0.11000000,0.07000000,0.00259180,0.03083037,-0.07586076,-23.50000000,-13.50000000,-0.00000000
289,0,0.23300000,-0.38900000,0.89100000,-0.21000000,-0.05000000,0.02000000,-0.00877949,0.02812292,-0.07477778,-23.50000000,-13.50000000,-0.00000000
290,0,0.23700000,-0.38500000,0.89200000,-0.21000000,-0.07000000,-0.01000000,-0.00907652,0.02802391,-0.07479192,-23.50000000,-13.50000000,0.00000000
291,0,0.23100000,-0.38900000,0.89600000,-0.09000000,0.01000000,-0.05000000,-0.00920066,0.02803770,-0.07486089,-23.50000000,-13.50000000,0.00000000
292,0,0.23200000,-0.38700000,0.89000000,-0.08000000,-0.05000000,0.02000000,-0.00931015,0.02796927,-0.07483352,-23.50000000,-13.50000000,-0.00000000
293,0,0.23100000,-0.38400000,0.89300000,-0.06000000,0.16000000,-0.05000000,-0.00939304,0.02819031,-0.07490259,-23.50000000,-13.50000000,-0.00000000
294,0,0.23300000,-0.39000000,0.89000000,-0.12000000,-0.14000000,-0.02000000,-0.00955776,0.02799814,-0.07493004,-23.49000000,-13.50000000,-0.00000000
295,0,0.23400000,-0.38900000,0.89400000,-0.04000000,0.11000000,0.00000000,-0.01170312,0.03389788,-0.07493004,-23.50000000,-13.50000000,-0.00000000
296,0,0.23300000,-0.39200000,0.88800000,-0.09000000,0.14000000,0.09000000,-0.01183098,0.03409677,-0.07480219,-23.50000000,-13.50000000,-0.00000000
297,0,0.23400000,-0.38900000,0.88800000,-0.07000000,0.18000000,-0.14000000,-0.01192871,0.03434810,-0.07499767,-23.50000000,-13.50000000,-0.00000000
298,0,0.23400000,-0.38800000,0.89700000,-0.04000000,-0.40000000,0.12000000,-0.01198403,0.03379492,-0.07483172,-23.50000000,-13.50000000,-0.00000000
299,0,0.23300000,-0.39000000,0.89400000,-0.15000000,0.10000000,0.04000000,-0.01219015,0.03393233,-0.07477675,-23.50000000,-13.50000000,-0.00000000
300,0,0.22800000,-0.39300000,0.89400000,0.08000000,-0.04000000,0.08000000,-0.01207885,0.03387668,-0.07466545,-23.50000000,-13.50000000,-0.00000000
301,0,0.23200000,-0.39300000,0.89500000,-0.07000000,-0.12000000,0.01000000,-0.01584518,0.02742011,-0.07412740,-23.50000000,-13.50000000,-0.00000000
302,0,0.23400000,-0.38800000,0.88900000,0.00000000,-0.05000000,-0.18000000,-0.01584518,0.02733765,-0.07442427,-23.50000000,-13.50000000,0.00000000
303,0,0.23100000,-0.38700000,0.89300000,0.08000000,-0.15000000,-0.24000000,-0.01573216,0.02712574,-0.07476332,-23.50000000,-13.50000000,-0.00000000
304,0,0.23100000,-0.38300000,0.89100000,-0.23000000,-0.26000000,-0.02000000,-0.01606087,0.02675416,-0.07479191,-23.50000000,-13.50000000,-0.00000000
305,0,0.23700000,-0.38800000,0.89600000,0.12000000,-0.05000000,0.16000000,-0.01588857,0.02668236,-0.07456217,-23.50000000,-13.50000000,-0.00000000
306,0,0.23200000,-0.38800000,0.89400000,-0.04000000,-0.11000000,-0.06000000,-0.01595305,0.02650504,-0.07465889,-23.50000000,-13.50000000,-0.00000000
307,0,0.23100000,-0.38700000,0.88900000,0.13000000,0.08000000,-0.20000000,-0.00896879,0.03080305,-0.08540391,-23.50000000,-13.50000000,-0.00000000
308,0,0.23300000,-0.38900000,0.89300000,-0.15000000,-0.11000000,0.09000000,-0.00919243,0.03063904,-0.08526973,-23.50000000,-13.50000000,-0.00000000
309,0,0.23000000,-0.38500000,0.89500000,-0.08000000,0.25000000,-0.11000000,-0.00930377,0.03098698,-0.08542282,-23.50000000,-13.50000000,-0.00000000
310,0,0.23400000,-0.39000000,0.89100000,-0.16000000,-0.12000000,0.13000000,-0.00952332,0.03082232,-0.08524444,-23.50000000,-13.50000000,0.00000000
311,0,0.23800000,-0.39000000,0.89300000,0.18000000,0.03000000,-0.08000000,-0.00927418,0.03086384,-0.08535517,-23.50000000,-13.50000000,0.00000000
312,0,0.23300000,-0.38700000,0.89100000,0.09000000,-0.27000000,-0.12000000,-0.00914570,0.03047841,-0.08552647,-23.50000000,-13.50000000,0.00000000
313,0,0.23000000,-0.38800000,0.89300000,0.09000000,0.17000000,0.01000000,-0.00433192,0.03957111,-0.08499160,-23.50000000,-13.50000000,0.00000000
314,0,0.23100000,-0.39200000,0.89000000,0.05000000,0.10000000,-0.07000000,-0.00426006,0.03971484,-0.08509221,-23.50000000,-13.50000000,0.00000000
315,0,0.23200000,-0.38800000,0.89200000,0.12000000,0.35000000,-0.03000000,-0.00409353,0.04020053,-0.08513384,-23.50000000,-13.50000000,0.00000000
316,0,0.23300000,-0.38400000,0.89300000,0.02000000,0.12000000,-0.01000000,-0.00406536,0.04036957,-0.08514793,-23.50000000,-13.50000000,-0.00000000
317,0,0.23500000,-0.38400000,0.88900000,-0.10000000,0.15000000,0.06000000,-0.00420551,0.04057980,-0.08506384,-23.50000000,-13.50000000,0.00000000
318,0,0.23700000,-0.38700000,0.89500000,0.29000000,-0.07000000,-0.22000000,-0.00378911,0.04047929,-0.08537973,-23.50000000,-13.50000000,0.00000000
319,0,0.22900000,-0.39000000,0.89100000,0.12000000,-0.25000000,0.11000000,0.00274433,0.02686795,-0.07939074,-23.50000000,-13.50000000,0.00000000
320,0,0.23400000,-0.38900000,0.89200000,-0.19000000,0.07000000,-0.17000000,0.00246386,0.02697128,-0.07964168,-23.50000000,-13.50000000,0.00000000
321,0,0.23600000,-0.39000000,0.89300000,-0.17000000,0.08000000,-0.05000000,0.00220197,0.02709452,-0.07971871,-23.50000000,-13.50000000,0.00000000
322,0,0.23300000,-0.39000000,0.89000000,-0.12000000,0.11000000,-0.02000000,0.00203431,0.02724822,-0.07974666,-23.50000000,-13.50000000,0.00000000
323,0,0.23000000,-0.38400000,0.89000000,0.06000000,0.06000000,-0.05000000,0.00212166,0.02733557,-0.07981945,-23.50000000,-13.50000000,0.00000000
324,0,0.23800000,-0.39200000,0.88400000,-0.05000000,-0.09000000,0.01000000,0.00204178,0.02719180,-0.07980347,-23.50000000,-13.50000000,0.00000000
325,0,0.23300000,-0.38900000,0.89500000,0.07000000,-0.16000000,-0.05000000,0.00575740,0.01869897,-0.08245748,-23.50000000,-13.50000000,0.00000000
326,0,0.23100000,-0.38500000,0.89200000,0.02000000,0.02000000,-0.00000000,0.00578502,0.01872659,-0.08245748,-23.50000000,-13.50000000,-0.00000000
327,0,0.23200000,-0.38900000,0.89200000,-0.09000000,-0.14000000,-0.02000000,0.00566670,0.01854253,-0.08248378,-23.50000000,-13.50000000,0.00000000
328,0,0.22700000,-0.39300000,0.88800000,0.08000000,-0.06000000,0.11000000,0.00577338,0.01846251,-0.08233709,-23.50000000,-13.50000000,0.00000000
329,0,0.23400000,-0.38700000,0.88800000,-0.28000000,0.23000000,0.14000000,0.00531326,0.01884047,-0.08210703,-23.50000000,-13.50000000,0.00000000
330,0,0.23900000,-0.39000000,0.89400000,-0.04000000,0.04000000,-0.20000000,0.00525155,0.01890218,-0.08241561,-23.50000000,-13.50000000,0.00000000
331,0,0.23400000,-0.38800000,0.89100000,-0.01000000,0.12000000,0.01000000,0.00471858,0.02529773,-0.08188265,-23.50000000,-13.50000000,0.00000000
332,0,0.23800000,-0.38600000,0.89100000,0.19000000,-0.09000000,-0.08000000,0.00497921,0.02517427,-0.08199238,-23.50000000,-13.50000000,0.00000000
333,0,0.23200000,-0.38900000,0.88900000,-0.02000000,0.04000000,0.01000000,0.00495263,0.02522743,-0.08197909,-23.50000000,-13.50000000,0.00000000
334,0,0.23300000,-0.39300000,0.88800000,-0.03000000,0.07000000,0.00000000,0.00491318,0.02531948,-0.08197909,-23.50000000,-13.50000000,0.00000000
335,0,0.22800000,-0.39000000,0.89300000,0.05000000,-0.13000000,0.25000000,0.00497948,0.02514711,-0.08164761,-23.50000000,-13.50000000,0.00000000
336,0,0.23500000,-0.39200000,0.89100000,-0.03000000,0.26000000,-0.07000000,0.00493903,0.02549762,-0.08174197,-23.50000000,-13.50000000,0.00000000
337,0,0.23600000,-0.38400000,0.89200000,-0.08000000,-0.17000000,0.02000000,0.00054364,0.01615740,-0.08064312,-23.50000000,-13.50000000,0.00000000
338,0,0.23300000,-0.38900000,0.88900000,0.24000000,-0.13000000,0.07000000,0.00088864,0.01597052,-0.08054250,-23.50000000,-13.50000000,0.00000000
339,0,0.23600000,-0.38700000,0.88700000,-0.05000000,0.02000000,0.04000000,0.00081927,0.01599827,-0.08048700,-23.50000000,-13.50000000,0.00000000
340,0,0.23100000,-0.38900000,0.89600000,-0.01000000,0.13000000,0.05000000,0.00080533,0.01617954,-0.08041728,-23.50000000,-13.50000000,0.00000000
341,0,0.23300000,-0.38800000,0.88900000,-0.03000000,0.02000000,-0.30000000,0.00076337,0.01620751,-0.08083688,-23.50000000,-13.50000000,0.00000000
342,0,0.23300000,-0.38400000,0.89000000,0.03000000,0.02000000,0.02000000,0.00080633,0.01623615,-0.08080824,-23.50000000,-13.50000000,0.00000000
343,0,0.23200000,-0.38500000,0.89200000,-0.08000000,0.02000000,-0.01000000,-0.00347038,0.01730533,-0.08134283,-23.50000000,-13.50000000,0.00000000
344,0,0.23100000,-0.39100000,0.89100000,-0.04000000,-0.02000000,-0.02000000,-0.00352816,0.01727644,-0.08137172,-23.50000000,-13.50000000,0.00000000
345,0,0.23700000,-0.39200000,0.89200000,-0.03000000,-0.16000000,-0.16000000,-0.00357042,0.01705105,-0.08159711,-23.50000000,-13.50000000,0.00000000
346,0,0.23400000,-0.38400000,0.88900000,-0.01000000,-0.02000000,0.04000000,-0.00358452,0.01702285,-0.08154072,-23.50000000,-13.50000000,0.00000000
347,0,0.23500000,-0.39400000,0.89100000,0.01000000,-0.05000000,-0.03000000,-0.00357071,0.01695383,-0.08158214,-23.50000000,-13.50000000,0.00000000
348,0,0.23400000,-0.39000000,0.89000000,0.07000000,-0.05000000,-0.05000000,-0.00346899,0.01688116,-0.08165480,-23.50000000,-13.50000000,0.00000000
349,0,0.23200000,-0.38700000,0.89100000,-0.07000000,-0.08000000,0.19000000,-0.00721519,0.01259979,-0.07148654,-23.50000000,-13.50000000,0.00000000
350,0,0.23200000,-0.39000000,0.89100000,-0.13000000,-0.02000000,-0.24000000,-0.00741326,0.01256932,-0.07185220,-23.50000000,-13.50000000,0.00000000
351,0,0.23700000,-0.38800000,0.89000000,0.26000000,-0.11000000,0.03000000,-0.00703262,0.01240828,-0.07180828,-23.50000000,-13.50000000,0.00000000
352,0,0.23400000,-0.39300000,0.89000000,-0.16000000,-0.05000000,-0.08000000,-0.00726339,0.01233616,-0.07192366,-23.50000000,-13.50000000,0.00000000
353,0,0.23000000,-0.38600000,0.89500000,0.11000000,-0.03000000,-0.10000000,-0.00710704,0.01229352,-0.07206579,-23.50000000,-13.50000000,0.00000000
354,0,0.23500000,-0.38200000,0.89400000,-0.27000000,0.25000000,0.17000000,-0.00754120,0.01269552,-0.07179243,-23.50000000,-13.50000000,0.00000000
355,0,0.23500000,-0.38800000,0.89200000,-0.30000000,-0.22000000,0.07000000,-0.02373984,0.00081652,-0.06801275,-23.50000000,-13.50000000,0.00000000
356,0,0.23300000,-0.38300000,0.89300000,0.04000000,-0.17000000,-0.24000000,-0.02368854,0.00059848,-0.06832056,-23.50000000,-13.50000000,0.00000000
357,0,0.23400000,-0.38600000,0.89100000,0.14000000,-0.12000000,-0.11000000,-0.02351556,0.00045021,-0.06845648,-23.50000000,-13.50000000,0.00000000
358,0,0.23800000,-0.38700000,0.88700000,0.09000000,0.05000000,-0.11000000,-0.02340288,0.00051281,-0.06859420,-23.50000000,-13.50000000,0.00000000
359,0,0.23000000,-0.39000000,0.89200000,-0.04000000,0.26000000,0.10000000,-0.02345246,0.00083512,-0.06847024,-23.50000000,-13.50000000,0.00000000
360,0,0.23700000,-0.38700000,0.89500000,-0.16000000,0.29000000,-0.09000000,-0.02365832,0.00120824,-0.06858603,-23.50000000,-13.50000000,0.00000000
361,0,0.23700000,-0.39000000,0.88900000,-0.12000000,0.15000000,-0.09000000,-0.03017737,0.00935705,-0.07347532,-23.50000000,-13.50000000,0.00000000
362,0,0.23200000,-0.38900000,0.88900000,-0.08000000,-0.08000000,0.23000000,-0.03028473,0.00924970,-0.07316668,-23.50000000,-13.50000000,0.00000000
363,0,0.23000000,-0.39000000,0.89400000,-0.12000000,0.03000000,0.13000000,-0.03044384,0.00928948,-0.07299431,-23.50000000,-13.50000000,0.00000000
364,0,0.23200000,-0.39200000,0.89300000,-0.02000000,0.22000000,0.35000000,-0.03046939,0.00957054,-0.07254717,-23.50000000,-13.50000000,0.00000000
365,0,0.23400000,-0.39100000,0.88900000,0.09000000,0.15000000,-0.17000000,-0.03035548,0.00976038,-0.07276232,-23.50000000,-13.50000000,0.00000000
366,0,0.23100000,-0.38900000,0.89100000,-0.04000000,-0.17000000,-0.20000000,-0.03040660,0.00954316,-0.07301788,-23.50000000,-13.50000000,0.00000000
367,0,0.23300000,-0.39300000,0.88800000,0.00000000,0.09000000,0.14000000,-0.03040660,0.01442196,-0.06542864,-23.50000000,-13.50000000,0.00000000
368,0,0.23500000,-0.39000000,0.89200000,0.06000000,-0.17000000,-0.14000000,-0.03032197,0.01418220,-0.06562609,-23.50000000,-13.50000000,0.00000000
369,0,0.23600000,-0.38900000,0.88900000,-0.13000000,-0.09000000,-0.08000000,-0.03050234,0.01405733,-0.06573709,-23.50000000,-13.50000000,0.00000000
370,0,0.22900000,-0.38500000,0.88800000,-0.05000000,-0.00000000,0.12000000,-0.03057039,0.01405733,-0.06557377,-23.51000000,-13.50000000,0.00000000
371,0,0.23600000,-0.38600000,0.88900000,-0.10000000,0.17000000,0.00000000,-0.03070776,0.01429084,-0.06557377,-23.51000000,-13.50000000,0.00000000
372,0,0.23300000,-0.38800000,0.89000000,-0.06000000,-0.07000000,0.02000000,-0.03080571,0.01417657,-0.06554112,-23.51000000,-13.50000000,0.00000000
373,0,0.23700000,-0.38800000,0.89100000,-0.15000000,0.12000000,0.13000000,-0.03892506,0.02067204,-0.05850435,-23.51000000,-13.50000000,0.00000000
374,0,0.23400000,-0.39000000,0.89200000,-0.10000000,0.06000000,-0.09000000,-0.03906185,0.02075412,-0.05862746,-23.51000000,-13.50000000,0.00000000
375,0,0.23100000,-0.39000000,0.88900000,-0.11000000,0.07000000,0.07000000,-0.03921017,0.02084850,-0.05853307,-23.51000000,-13.50000000,0.00000000
376,0,0.24000000,-0.38600000,0.89200000,-0.02000000,-0.11000000,0.33000000,-0.03923665,0.02070283,-0.05809606,-23.51000000,-13.50000000,0.00000000
377,0,0.23000000,-0.39000000,0.89000000,-0.13000000,0.03000000,0.14000000,-0.03940593,0.02074190,-0.05791377,-23.51000000,-13.50000000,0.00000000
378,0,0.23500000,-0.39000000,0.89600000,0.19000000,-0.22000000,-0.05000000,-0.03914725,0.02044237,-0.05798184,-23.51000000,-13.50000000,0.00000000
379,0,0.23000000,-0.38600000,0.89600000,0.08000000,-0.05000000,-0.06000000,-0.03483726,0.01774863,-0.06121433,-23.51000000,-13.50000000,0.01000000
380,0,0.23500000,-0.38900000,0.89000000,0.01000000,-0.02000000,0.24000000,-0.03482201,0.01771812,-0.06084827,-23.51000000,-13.50000000,0.01000000
381,0,0.23400000,-0.38500000,0.88900000,-0.10000000,0.04000000,-0.10000000,-0.03496722,0.01777621,-0.06099347,-23.51000000,-13.50000000,0.01000000
382,0,0.23100000,-0.38800000,0.88800000,0.02000000,0.05000000,0.22000000,-0.03493939,0.01784577,-0.06068739,-23.51000000,-13.50000000,0.01000000
383,0,0.23400000,-0.38900000,0.89100000,-0.13000000,-0.11000000,-0.07000000,-0.03512925,0.01768513,-0.06078962,-23.51000000,-13.50000000,0.01000000
384,0,0.23400000,-0.39200000,0.88700000,0.06000000,-0.15000000,-0.08000000,-0.03501803,0.01740709,-0.06093791,-23.51000000,-13.50000000,0.01000000
385,0,0.23400000,-0.38800000,0.89000000,-0.01000000,0.07000000,-0.05000000,-0.03554922,0.02112541,-0.06359385,-23.51000000,-13.50000000,0.01000000
386,0,0.23600000,-0.38500000,0.89000000,0.01000000,-0.15000000,-0.17000000,-0.03553527,0.02091611,-0.06383105,-23.51000000,-13.50000000,0.00000000
387,0,0.23200000,-0.38800000,0.89000000,0.08000000,0.20000000,-0.18000000,-0.03543142,0.02117572,-0.06406470,-23.51000000,-13.50000000,0.00000000
388,0,0.23000000,-0.39200000,0.89500000,0.15000000,0.17000000,0.08000000,-0.03524494,0.02138707,-0.06396525,-23.50000000,-13.50000000,0.00000000
389,0,0.23300000,-0.38600000,0.89500000,-0.28000000,0.01000000,-0.14000000,-0.03559251,0.02139948,-0.06413903,-23.51000000,-13.50000000,0.00000000
390,0,0.23300000,-0.38800000,0.89300000,0.04000000,0.01000000,-0.07000000,-0.03549229,0.02142453,-0.06431441,-23.50000000,-13.50000000,0.00000000
391,0,0.23100000,-0.38500000,0.89700000,0.13000000,0.12000000,-0.02000000,-0.02851698,0.02786328,-0.06538753,-23.50000000,-13.50000000,0.00000000
392,0,0.23700000,-0.39000000,0.89000000,0.21000000,-0.01000000,-0.28000000,-0.02822882,0.02784955,-0.06577175,-23.50000000,-13.51000000,0.00000000
393,0,0.22900000,-0.38700000,0.89000000,0.15000000,-0.01000000,-0.10000000,-0.02804105,0.02783704,-0.06589693,-23.50000000,-13.50000000,0.00000000
394,0,0.22900000,-0.39200000,0.89000000,-0.16000000,0.25000000,0.01000000,-0.02824351,0.02815338,-0.06588427,-23.50000000,-13.50000000,0.00000000
395,0,0.22700000,-0.38700000,0.89200000,-0.05000000,0.04000000,-0.22000000,-0.02830536,0.02820287,-0.06615642,-23.50000000,-13.50000000,0.00000000
396,0,0.23000000,-0.38500000,0.88900000,0.15000000,-0.17000000,0.07000000,-0.02809156,0.02796055,-0.06605664,-23.50000000,-13.50000000,0.00000000
397,0,0.22800000,-0.39000000,0.89700000,0.25000000,0.16000000,-0.06000000,-0.01385556,0.03707159,-0.06947328,-23.50000000,-13.50000000,0.00000000
398,0,0.22900000,-0.39000000,0.89200000,-0.02000000,-0.01000000,0.12000000,-0.01388319,0.03705778,-0.06930750,-23.50000000,-13.50000000,0.00000000
399,0,0.23400000,-0.38600000,0.88600000,-0.18000000,-0.10000000,-0.13000000,-0.01412263,0.03692475,-0.06948043,-23.50000000,-13.50000000,0.00000000
400,0,0.23200000,-0.38900000,0.88900000,-0.15000000,0.09000000,0.03000000,-0.01431666,0.03704117,-0.06944163,-23.50000000,-13.50000000,0.00000000
401,0,0.23500000,-0.39100000,0.89100000,-0.04000000,0.12000000,-0.03000000,-0.01436851,0.03719671,-0.06948051,-23.50000000,-13.50000000,0.00000000
402,0,0.23400000,-0.38500000,0.88800000,0.03000000,-0.08000000,-0.10000000,-0.01431353,0.03705010,-0.06966377,-23.50000000,-13.50000000,0.00000000
403,0,0.23100000,-0.38400000,0.89000000,0.07000000,0.17000000,0.20000000,-0.01420631,0.03731049,-0.06935743,-23.50000000,-13.50000000,0.00000000
404,0,0.22800000,-0.38900000,0.89200000,-0.13000000,0.19000000,0.05000000,-0.02112000,0.04741511,-0.06669832,-23.50000000,-13.50000000,0.00000000
405,0,0.23200000,-0.38700000,0.88900000,-0.04000000,0.13000000,-0.08000000,-0.02117540,0.04759517,-0.06680913,-23.50000000,-13.50000000,0.00000000
406,0,0.22800000,-0.39000000,0.89200000,-0.09000000,-0.17000000,0.06000000,-0.02129467,0.04736988,-0.06672961,-23.50000000,-13.50000000,0.00000000
407,0,0.23800000,-0.39200000,0.89600000,0.17000000,-0.09000000,-0.05000000,-0.02107283,0.04725244,-0.06679486,-23.50000000,-13.50000000,0.00000000
408,0,0.23500000,-0.38700000,0.88700000,-0.16000000,-0.03000000,0.01000000,-0.02128407,0.04721283,-0.06678166,-23.50000000,-13.50000000,0.00000000
409,0,0.22900000,-0.38800000,0.89100000,-0.16000000,-0.16000000,-0.04000000,-0.02151674,0.04698015,-0.06683983,-23.50000000,-13.50000000,0.00000000
410,0,0.23000000,-0.39000000,0.89200000,-0.02000000,-0.03000000,-0.00000000,-0.02261178,0.04533760,-0.06683983,-23.51000000,-13.50000000,0.00000000
411,0,0.23500000,-0.38400000,0.88900000,-0.13000000,0.05000000,-0.15000000,-0.02280020,0.04541008,-0.06705724,-23.51000000,-13.50000000,0.00000000
412,0,0.23200000,-0.38400000,0.89100000,0.14000000,0.20000000,0.23000000,-0.02260459,0.04568952,-0.06673588,-23.50000000,-13.50000000,0.00000000
413,0,0.23300000,-0.38700000,0.89100000,0.07000000,0.09000000,-0.00000000,-0.02250670,0.04581538,-0.06673588,-23.51000000,-13.50000000,0.00000000
414,0,0.23400000,-0.38700000,0.89200000,0.01000000,0.01000000,0.11000000,-0.02249281,0.04582927,-0.06658310,-23.50000000,-13.50000000,0.00000000
415,0,0.23000000,-0.38600000,0.89300000,0.07000000,0.05000000,0.05000000,-0.02239163,0.04590154,-0.06651083,-23.51000000,-13.50000000,0.00000000
416,0,0.23600000,-0.38600000,0.89100000,-0.11000000,0.31000000,-0.16000000,-0.02839712,0.06282609,-0.07524609,-23.51000000,-13.50000000,0.00000000
417,0,0.23200000,-0.38900000,0.89000000,0.02000000,-0.23000000,0.19000000,-0.02835914,0.06238930,-0.07488526,-23.51000000,-13.50000000,0.00000000
418,0,0.22800000,-0.38500000,0.88900000,0.13000000,-0.18000000,-0.12000000,-0.02811232,0.06204755,-0.07511309,-23.51000000,-13.50000000,0.00000000
419,0,0.23200000,-0.38600000,0.89100000,-0.20000000,-0.18000000,-0.03000000,-0.02840016,0.06178849,-0.07515627,-23.51000000,-13.50000000,0.00000000
420,0,0.23500000,-0.38700000,0.88800000,0.09000000,-0.14000000,0.30000000,-0.02827754,0.06159775,-0.07474754,-23.50000000,-13.50000000,0.00000000
421,0,0.23300000,-0.39400000,0.89300000,-0.12000000,0.02000000,-0.13000000,-0.02845379,0.06162713,-0.07493848,-23.51000000,-13.50000000,0.00000000
422,0,0.23200000,-0.39200000,0.89500000,-0.04000000,0.07000000,0.07000000,-0.03051024,0.06522591,-0.07133969,-23.51000000,-13.50000000,0.00000000
423,0,0.23000000,-0.38500000,0.89400000,0.01000000,0.11000000,0.06000000,-0.03049612,0.06538126,-0.07125495,-23.51000000,-13.50000000,0.00000000
424,0,0.23400000,-0.38800000,0.89100000,-0.20000000,0.13000000,-0.06000000,-0.03076302,0.06555475,-0.07133503,-23.51000000,-13.50000000,0.00000000
425,0,0.23100000,-0.39100000,0.89100000,-0.06000000,0.05000000,0.17000000,-0.03084151,0.06562015,-0.07111265,-23.51000000,-13.50000000,0.00000000
426,0,0.23500000,-0.38800000,0.89700000,-0.09000000,0.02000000,0.23000000,-0.03095994,0.06564647,-0.07080999,-23.51000000,-13.50000000,0.00000000
427,0,0.23500000,-0.38600000,0.89300000,-0.22000000,0.22000000,-0.20000000,-0.03126392,0.06595045,-0.07108634,-23.51000000,-13.50000000,0.00000000
428,0,0.22800000,-0.39000000,0.89100000,-0.01000000,0.13000000,0.19000000,-0.03180919,0.07303886,-0.06072636,-23.51000000,-13.50000000,0.00000000
429,0,0.22900000,-0.39200000,0.89300000,-0.06000000,0.12000000,-0.00000000,-0.03187630,0.07317308,-0.06072636,-23.51000000,-13.50000000,0.01000000
430,0,0.23100000,-0.39100000,0.88900000,-0.04000000,0.13000000,-0.08000000,-0.03191847,0.07331015,-0.06081071,-23.51000000,-13.50000000,0.01000000
431,0,0.23500000,-0.38900000,0.89300000,0.21000000,0.32000000,0.02000000,-0.03170531,0.07363497,-0.06079041,-23.51000000,-13.50000000,0.00000000
432,0,0.23300000,-0.38500000,0.89100000,0.23000000,-0.15000000,0.03000000,-0.03146856,0.07348057,-0.06075953,-23.51000000,-13.50000000,0.00000000
433,0,0.23200000,-0.38600000,0.89300000,-0.05000000,0.07000000,0.08000000,-0.03151978,0.07355227,-0.06067758,-23.51000000,-13.50000000,0.01000000
434,0,0.23300000,-0.38800000,0.88700000,0.25000000,0.25000000,-0.02000000,-0.01770751,0.08736454,-0.06178256,-23.51000000,-13.50000000,0.01000000
435,0,0.23300000,-0.39300000,0.89600000,-0.20000000,-0.15000000,-0.16000000,-0.01792044,0.08720484,-0.06195291,-23.51000000,-13.49000000,0.01000000
436,0,0.23400000,-0.38500000,0.88600000,-0.28000000,0.07000000,0.11000000,-0.01820298,0.08727548,-0.06184191,-23.51000000,-13.50000000,0.01000000
437,0,0.22900000,-0.38300000,0.88700000,0.08000000,-0.20000000,0.07000000,-0.01812159,0.08707199,-0.06177069,-23.51000000,-13.50000000,0.01000000
438,0,0.23100000,-0.39100000,0.88900000,-0.24000000,-0.01000000,-0.15000000,-0.01837012,0.08706164,-0.06192602,-23.51000000,-13.49000000,0.01000000
439,0,0.23300000,-0.39100000,0.88900000,-0.13000000,0.07000000,0.07000000,-0.01850211,0.08713271,-0.06185495,-23.52000000,-13.50000000,0.01000000
440,0,0.23200000,-0.39000000,0.89100000,0.04000000,-0.04000000,-0.06000000,-0.01628036,0.08491096,-0.06518758,-23.52000000,-13.50000000,0.01000000
441,0,0.23300000,-0.38900000,0.88900000,-0.08000000,-0.07000000,0.05000000,-0.01636349,0.08483822,-0.06513562,-23.52000000,-13.50000000,0.00000000
442,0,0.23800000,-0.38600000,0.88900000,-0.01000000,0.05000000,-0.26000000,-0.01637353,0.08488841,-0.06539662,-23.52000000,-13.50000000,0.00000000
443,0,0.23200000,-0.38900000,0.89200000,0.14000000,-0.05000000,0.14000000,-0.01623339,0.08483836,-0.06525648,-23.52000000,-13.50000000,0.00000000
444,0,0.23300000,-0.38900000,0.89400000,0.15000000,0.04000000,0.10000000,-0.01608217,0.08487869,-0.06515567,-23.52000000,-13.50000000,0.00000000
445,0,0.23500000,-0.38900000,0.89300000,-0.07000000,-0.16000000,0.02000000,-0.01615214,0.08471876,-0.06513568,-23.52000000,-13.50000000,0.00000000
446,0,0.23300000,-0.38900000,0.89000000,0.02000000,0.09000000,-0.03000000,-0.01502497,0.08979102,-0.06682643,-23.52000000,-13.50000000,0.00000000
447,0,0.23100000,-0.38800000,0.89200000,-0.12000000,0.07000000,-0.11000000,-0.01515049,0.08986424,-0.06694149,-23.52000000,-13.49000000,0.00000000
448,0,0.22800000,-0.38900000,0.89300000,0.05000000,0.10000000,0.07000000,-0.01510063,0.08996396,-0.06687169,-23.52000000,-13.49000000,0.00000000
449,0,0.23900000,-0.39100000,0.89300000,0.11000000,0.06000000,0.13000000,-0.01498809,0.09002535,-0.06673868,-23.52000000,-13.49000000,0.00000000
450,0,0.22900000,-0.39200000,0.89300000,0.08000000,-0.19000000,0.11000000,-0.01490702,0.08983281,-0.06662721,-23.52000000,-13.49000000,0.00000000
451,0,0.23400000,-0.38700000,0.88800000,0.21000000,0.03000000,-0.06000000,-0.01469496,0.08986310,-0.06668780,-23.52000000,-13.49000000,0.00000000
452,0,0.23100000,-0.39100000,0.89300000,-0.16000000,-0.08000000,0.16000000,-0.02358413,0.08541851,-0.05779862,-23.52000000,-13.49000000,0.00000000
453,0,0.23600000,-0.39000000,0.88800000,-0.26000000,0.28000000,-0.10000000,-0.02385704,0.08571240,-0.05790358,-23.52000000,-13.49000000,0.00000000
454,0,0.23300000,-0.38500000,0.89000000,0.00000000,0.19000000,0.02000000,-0.02385704,0.08590191,-0.05788364,-23.52000000,-13.49000000,0.00000000
455,0,0.23200000,-0.38700000,0.89000000,-0.22000000,-0.11000000,0.01000000,-0.02409058,0.08578514,-0.05787302,-23.52000000,-13.49000000,0.00000000
456,0,0.22800000,-0.39300000,0.89200000,-0.22000000,-0.22000000,0.20000000,-0.02432411,0.08555160,-0.05766071,-23.52000000,-13.50000000,0.01000000
457,0,0.23500000,-0.38400000,0.89600000,-0.14000000,-0.13000000,0.30000000,-0.02446672,0.08541918,-0.05735512,-23.52000000,-13.50000000,0.01000000
458,0,0.23000000,-0.38700000,0.89000000,-0.03000000,0.16000000,0.10000000,-0.02613188,0.09430004,-0.05180459,-23.52000000,-13.50000000,0.01000000
459,0,0.23700000,-0.38700000,0.89100000,0.02000000,-0.06000000,-0.06000000,-0.02611097,0.09423729,-0.05186733,-23.52000000,-13.50000000,0.01000000
460,0,0.22900000,-0.38600000,0.89400000,-0.03000000,0.17000000,0.25000000,-0.02614085,0.09440665,-0.05161828,-23.52000000,-13.50000000,0.01000000
461,0,0.23400000,-0.39000000,0.89000000,-0.08000000,-0.03000000,0.14000000,-0.02622194,0.09437624,-0.05147637,-23.52000000,-13.50000000,0.01000000
462,0,0.22400000,-0.39000000,0.89200000,0.08000000,0.16000000,0.10000000,-0.02614188,0.09453636,-0.05137630,-23.52000000,-13.50000000,0.01000000
463,0,0.23000000,-0.39100000,0.88900000,0.02000000,-0.11000000,-0.19000000,-0.02612174,0.09442560,-0.05156762,-23.52000000,-13.50000000,0.01000000
464,0,0.23300000,-0.38600000,0.89000000,0.01000000,0.03000000,-0.19000000,-0.02555893,0.09611403,-0.06226104,-23.52000000,-13.50000000,0.01000000
465,0,0.23100000,-0.38900000,0.89200000,0.21000000,0.01000000,-0.00000000,-0.02533040,0.09612492,-0.06226104,-23.52000000,-13.50000000,0.01000000
466,0,0.23500000,-0.38400000,0.88900000,0.06000000,0.06000000,0.13000000,-0.02526838,0.09618693,-0.06212667,-23.52000000,-13.50000000,0.01000000
467,0,0.23000000,-0.38400000,0.89200000,-0.05000000,0.24000000,0.12000000,-0.02531919,0.09643083,-0.06200472,-23.52000000,-13.49000000,0.01000000
468,0,0.22800000,-0.38500000,0.89200000,0.05000000,-0.17000000,-0.06000000,-0.02526919,0.09626083,-0.06206472,-23.52000000,-13.50000000,0.01000000
469,0,0.23300000,-0.38800000,0.89200000,0.05000000,-0.09000000,-0.31000000,-0.02521924,0.09617091,-0.06237444,-23.52000000,-13.50000000,0.01000000
470,0,0.23300000,-0.38600000,0.89500000,0.14000000,-0.10000000,-0.07000000,-0.01746361,0.09063117,-0.06625225,-23.52000000,-13.49000000,0.01000000
471,0,0.23300000,-0.39100000,0.89300000,-0.03000000,-0.04000000,0.02000000,-0.01749563,0.09058847,-0.06623090,-23.52000000,-13.49000000,0.01000000
472,0,0.23700000,-0.38700000,0.89400000,0.21000000,-0.14000000,0.09000000,-0.01727691,0.09044266,-0.06613717,-23.52000000,-13.49000000,0.01000000
473,0,0.23600000,-0.39200000,0.89100000,-0.13000000,-0.06000000,0.23000000,-0.01740676,0.09038273,-0.06590743,-23.52000000,-13.49000000,0.01000000
474,0,0.24000000,-0.39100000,0.89100000,0.05000000,0.05000000,0.12000000,-0.01735704,0.09043246,-0.06578809,-23.52000000,-13.49000000,0.01000000
475,0,0.22800000,-0.39100000,0.89300000,0.03000000,-0.02000000,-0.33000000,-0.01732713,0.09041252,-0.06611700,-23.52000000,-13.49000000,0.01000000
476,0,0.22700000,-0.38900000,0.88700000,-0.02000000,0.06000000,-0.08000000,-0.01843991,0.09375086,-0.07056811,-23.52000000,-13.49000000,0.01000000
477,0,0.23200000,-0.38900000,0.89200000,0.04000000,0.14000000,0.11000000,-0.01839795,0.09389774,-0.07045270,-23.52000000,-13.49000000,0.01000000
478,0,0.23300000,-0.38500000,0.89200000,-0.08000000,0.03000000,-0.09000000,-0.01847928,0.09392824,-0.07054421,-23.52000000,-13.49000000,0.01000000
479,0,0.23900000,-0.39000000,0.89200000,0.01000000,0.08000000,-0.00000000,-0.01846914,0.09400941,-0.07054421,-23.52000000,-13.49000000,0.01000000
480,0,0.23300000,-0.39200000,0.89300000,0.04000000,-0.18000000,-0.09000000,-0.01842890,0.09382833,-0.07063475,-23.53000000,-13.49000000,0.01000000
481,0,0.23300000,-0.39200000,0.89200000,-0.02000000,-0.05000000,-0.16000000,-0.01844886,0.09377842,-0.07079445,-23.53000000,-13.49000000,0.01000000
482,0,0.23300000,-0.38900000,0.89500000,-0.04000000,0.22000000,0.09000000,-0.02070164,0.10616873,-0.06572568,-23.53000000,-13.49000000,0.01000000
483,0,0.23500000,-0.38500000,0.89300000,-0.15000000,0.13000000,0.07000000,-0.02086113,0.10630695,-0.06565126,-23.53000000,-13.49000000,0.01000000
484,0,0.22900000,-0.38800000,0.89000000,-0.18000000,-0.11000000,-0.18000000,-0.02104203,0.10619639,-0.06583217,-23.53000000,-13.49000000,0.01000000
485,0,0.23300000,-0.39000000,0.89300000,0.07000000,0.17000000,-0.14000000,-0.02097191,0.10636668,-0.06597240,-23.53000000,-13.49000000,0.01000000
486,0,0.23300000,-0.38300000,0.90000000,-0.09000000,-0.08000000,-0.08000000,-0.02106172,0.10628685,-0.06605223,-23.53000000,-13.49000000,0.01000000
487,0,0.23300000,-0.39100000,0.89100000,0.13000000,-0.12000000,0.31000000,-0.02093187,0.10616699,-0.06574259,-23.53000000,-13.49000000,0.01000000
488,0,0.23400000,-0.38400000,0.89000000,0.01000000,-0.09000000,-0.03000000,-0.02037693,0.10117251,-0.06740742,-23.53000000,-13.49000000,0.01000000
489,0,0.23700000,-0.39000000,0.89700000,0.03000000,0.29000000,0.04000000,-0.02034520,0.10147925,-0.06736511,-23.53000000,-13.49000000,0.01000000
490,0,0.22900000,-0.39100000,0.88700000,-0.21000000,-0.09000000,0.21000000,-0.02055556,0.10138910,-0.06715475,-23.53000000,-13.49000000,0.01000000
491,0,0.23400000,-0.38400000,0.89300000,0.14000000,0.11000000,0.37000000,-0.02041706,0.10149792,-0.06678871,-23.53000000,-13.49000000,0.01000000
492,0,0.23700000,-0.39100000,0.89000000,-0.07000000,0.05000000,0.13000000,-0.02048664,0.10154763,-0.06665948,-23.53000000,-13.49000000,0.01000000
493,0,0.23000000,-0.38800000,0.89400000,0.07000000,-0.21000000,-0.21000000,-0.02041230,0.10132460,-0.06688251,-23.53000000,-13.49000000,0.01000000
494,0,0.23800000,-0.38700000,0.89500000,0.03000000,0.07000000,0.04000000,-0.01871828,0.10527731,-0.06462382,-23.53000000,-13.49000000,0.01000000
495,0,0.23200000,-0.38700000,0.89200000,0.10000000,0.13000000,-0.09000000,-0.01861168,0.10541589,-0.06471977,-23.53000000,-13.49000000,0.01000000
496,0,0.23800000,-0.38400000,0.88800000,-0.13000000,0.05000000,0.42000000,-0.01874342,0.10546656,-0.06429415,-23.53000000,-13.49000000,0.01000000
497,0,0.23300000,-0.39100000,0.89100000,-0.08000000,0.16000000,-0.14000000,-0.01882409,0.10562790,-0.06443532,-23.53000000,-13.49000000,0.01000000
498,0,0.23800000,-0.38800000,0.89300000,0.09000000,-0.06000000,0.15000000,-0.01873353,0.10556753,-0.06428439,-23.53000000,-13.49000000,0.01000000
499,0,0.23100000,-0.39100000,0.88900000,-0.13000000,0.08000000,-0.05000000,-0.01886564,0.10564883,-0.06433520,-23.53000000,-13.49000000,0.01000000
500,0,0.23800000,-0.39100000,0.88900000,0.06000000,0.07000000,-0.14000000,-0.01554004,0.10952870,-0.07209494,-23.53000000,-13.49000000,0.01000000
501,0,0.23300000,-0.38300000,0.89500000,-0.07000000,-0.12000000,-0.16000000,-0.01561399,0.10940191,-0.07226398,-23.53000000,-13.49000000,0.01000000
502,0,0.24000000,-0.39100000,0.88800000,0.02000000,-0.10000000,0.21000000,-0.01559388,0.10930134,-0.07205277,-23.53000000,-13.49000000,0.01000000
503,0,0.23700000,-0.39100000,0.88900000,0.21000000,-0.15000000,0.03000000,-0.01538327,0.10915091,-0.07202269,-23.53000000,-13.49000000,0.02000000
504,0,0.22700000,-0.38400000,0.89400000,-0.24000000,0.09000000,-0.24000000,-0.01562288,0.10924076,-0.07226229,-23.53000000,-13.49000000,0.01000000
505,0,0.23600000,-0.38800000,0.89100000,-0.10000000,-0.03000000,0.01000000,-0.01572388,0.10921046,-0.07225219,-23.53000000,-13.49000000,0.01000000
506,0,0.23400000,-0.38700000,0.88900000,0.11000000,0.03000000,0.31000000,-0.00961787,0.11087573,-0.05504434,-23.53000000,-13.49000000,0.01000000
507,0,0.23200000,-0.38600000,0.89100000,-0.09000000,-0.06000000,-0.04000000,-0.00971339,0.11081205,-0.05508680,-23.53000000,-13.49000000,0.01000000
508,0,0.23400000,-0.38900000,0.89300000,-0.07000000,-0.04000000,-0.01000000,-0.00978449,0.11077142,-0.05509695,-23.53000000,-13.49000000,0.01000000
509,0,0.23800000,-0.38900000,0.88800000,0.08000000,-0.09000000,0.05000000,-0.00970392,0.11068078,-0.05504659,-23.53000000,-13.49000000,0.01000000
510,0,0.23300000,-0.38800000,0.88600000,-0.02000000,0.33000000,-0.12000000,-0.00972397,0.11101165,-0.05516691,-23.53000000,-13.49000000,0.01000000
511,0,0.23700000,-0.39000000,0.89300000,0.12000000,-0.20000000,0.05000000,-0.00960277,0.11080964,-0.05511641,-23.53000000,-13.49000000,0.01000000
512,0,0.23000000,-0.39100000,0.88500000,0.20000000,-0.27000000,-0.04000000,0.00168819,0.09556686,-0.05737460,-23.53000000,-13.49000000,0.01000000
513,0,0.23500000,-0.39000000,0.89000000,0.06000000,0.05000000,0.06000000,0.00175310,0.09562095,-0.05730969,-23.53000000,-13.49000000,0.01000000
514,0,0.23300000,-0.38200000,0.88900000,-0.03000000,-0.13000000,-0.14000000,0.00172241,0.09548797,-0.05745290,-23.53000000,-13.49000000,0.01000000
515,0,0.23500000,-0.38800000,0.89100000,-0.04000000,0.04000000,-0.05000000,0.00168210,0.09552828,-0.05750328,-23.53000000,-13.49000000,0.01000000
516,0,0.23200000,-0.38900000,0.89200000,0.15000000,-0.06000000,-0.07000000,0.00183529,0.09546700,-0.05757477,-23.53000000,-13.49000000,0.01000000
517,0,0.23800000,-0.38800000,0.89200000,0.03000000,-0.05000000,0.22000000,0.00186568,0.09541634,-0.05735188,-23.53000000,-13.49000000,0.01000000
518,0,0.23200000,-0.39000000,0.89300000,0.31000000,0.01000000,-0.22000000,0.01905668,0.09597089,-0.06955194,-23.53000000,-13.49000000,0.01000000
519,0,0.23200000,-0.39000000,0.89200000,-0.35000000,-0.12000000,-0.07000000,0.01868347,0.09584293,-0.06962658,-23.53000000,-13.49000000,0.01000000
520,0,0.23100000,-0.39100000,0.88900000,0.06000000,0.11000000,-0.08000000,0.01874373,0.09595341,-0.06970693,-23.54000000,-13.49000000,0.01000000
521,0,0.23400000,-0.39000000,0.89200000,0.15000000,-0.24000000,-0.04000000,0.01889510,0.09571123,-0.06974729,-23.54000000,-13.49000000,0.01000000
522,0,0.24000000,-0.38800000,0.89200000,-0.19000000,0.12000000,0.18000000,0.01866514,0.09585647,-0.06952944,-23.54000000,-13.49000000,0.01000000
523,0,0.23200000,-0.38700000,0.89100000,-0.03000000,-0.04000000,-0.03000000,0.01863468,0.09581585,-0.06955990,-23.54000000,-13.49000000,0.01000000
524,0,0.23200000,-0.38700000,0.89100000,-0.20000000,-0.20000000,0.14000000,0.00699439,0.08417557,-0.06141170,-23.54000000,-13.49000000,0.01000000
525,0,0.23100000,-0.38900000,0.89200000,-0.03000000,-0.02000000,0.04000000,0.00696180,0.08415384,-0.06136823,-23.54000000,-13.49000000,0.01000000
526,0,0.23600000,-0.38700000,0.89400000,0.01000000,0.22000000,0.04000000,0.00697200,0.08437825,-0.06132743,-23.54000000,-13.49000000,0.01000000
527,0,0.23500000,-0.39300000,0.89500000,0.12000000,0.05000000,0.01000000,0.00709263,0.08442852,-0.06131738,-23.54000000,-13.49000000,0.01000000
528,0,0.22700000,-0.38600000,0.89100000,-0.03000000,0.19000000,0.03000000,0.00706254,0.08461911,-0.06128729,-23.54000000,-13.49000000,0.01000000
529,0,0.23400000,-0.38800000,0.88700000,-0.04000000,-0.06000000,-0.17000000,0.00702202,0.08455834,-0.06145948,-23.53000000,-13.49000000,0.01000000
530,0,0.23200000,-0.39200000,0.88700000,0.03000000,-0.04000000,-0.08000000,0.00705258,0.08451759,-0.06154097,-23.53000000,-13.49000000,0.01000000
531,0,0.23800000,-0.38700000,0.89500000,0.12000000,0.02000000,0.11000000,0.01371777,0.08562846,-0.05543121,-23.53000000,-13.49000000,0.01000000
532,0,0.23000000,-0.39000000,0.88600000,0.24000000,0.01000000,-0.11000000,0.01397535,0.08563919,-0.05554926,-23.53000000,-13.49000000,0.01000000
533,0,0.23400000,-0.38700000,0.89500000,0.05000000,-0.07000000,0.22000000,0.01402661,0.08556742,-0.05532370,-23.53000000,-13.49000000,0.01000000
534,0,0.23600000,-0.39000000,0.89500000,-0.07000000,0.05000000,-0.07000000,0.01395608,0.08561780,-0.05539423,-23.53000000,-13.49000000,0.01000000
535,0,0.23100000,-0.39000000,0.89200000,0.02000000,-0.21000000,-0.16000000,0.01397656,0.08540269,-0.05555813,-23.54000000,-13.49000000,0.01000000
536,0,0.23900000,-0.39000000,0.88400000,-0.18000000,0.05000000,-0.15000000,0.01379360,0.08545351,-0.05571060,-23.54000000,-13.49000000,0.01000000
537,0,0.23800000,-0.38800000,0.89100000,0.19000000,-0.00000000,0.02000000,0.02449287,0.08545351,-0.05458436,-23.54000000,-13.49000000,0.01000000
538,0,0.23900000,-0.38800000,0.88900000,-0.25000000,0.14000000,-0.15000000,0.02422647,0.08560270,-0.05474420,-23.54000000,-13.49000000,0.01000000
539,0,0.23200000,-0.38500000,0.89100000,0.03000000,0.08000000,0.05000000,0.02425679,0.08568356,-0.05469366,-23.54000000,-13.49000000,0.01000000
540,0,0.22700000,-0.38800000,0.89300000,-0.07000000,0.14000000,0.05000000,0.02418580,0.08582553,-0.05464296,-23.54000000,-13.49000000,0.01000000
541,0,0.23800000,-0.39100000,0.89100000,0.19000000,-0.21000000,-0.10000000,0.02437681,0.08561442,-0.05474349,-23.53000000,-13.49000000,0.01000000
542,0,0.22700000,-0.39000000,0.89500000,-0.01000000,0.17000000,-0.01000000,0.02436676,0.08578528,-0.05475354,-23.53000000,-13.49000000,0.01000000
543,0,0.23800000,-0.38300000,0.89400000,-0.25000000,0.02000000,0.10000000,0.01051282,0.08689359,-0.04921196,-23.54000000,-13.49000000,0.01000000
544,0,0.23400000,-0.38800000,0.89500000,0.03000000,0.01000000,-0.23000000,0.01054468,0.08690421,-0.04945623,-23.53000000,-13.49000000,0.01000000
545,0,0.23300000,-0.38900000,0.88900000,-0.02000000,-0.19000000,-0.04000000,0.01052450,0.08671244,-0.04949660,-23.53000000,-13.49000000,0.01000000
546,0,0.23500000,-0.38900000,0.89500000,-0.21000000,0.23000000,0.02000000,0.01030978,0.08694760,-0.04947615,-23.54000000,-13.49000000,0.01000000
547,0,0.22800000,-0.39000000,0.88800000,-0.18000000,0.01000000,0.16000000,0.01012815,0.08695769,-0.04931470,-23.54000000,-13.49000000,0.01000000
548,0,0.23400000,-0.38900000,0.89100000,-0.08000000,-0.05000000,-0.07000000,0.01004775,0.08690744,-0.04938505,-23.54000000,-13.49000000,0.01000000
549,0,0.23500000,-0.39100000,0.89400000,0.09000000,0.12000000,0.02000000,0.01505861,0.09358860,-0.04827152,-23.54000000,-13.49000000,0.01000000
550,0,0.23600000,-0.38600000,0.89000000,0.06000000,0.07000000,0.04000000,0.01512245,0.09366308,-0.04822897,-23.53000000,-13.49000000,0.01000000
551,0,0.23300000,-0.39000000,0.89400000,-0.03000000,0.12000000,-0.04000000,0.01509202,0.09378480,-0.04826954,-23.53000000,-13.49000000,0.01000000
552,0,0.23200000,-0.38700000,0.89100000,0.12000000,-0.03000000,-0.05000000,0.01521428,0.09375423,-0.04832048,-23.54000000,-13.49000000,0.01000000
553,0,0.23900000,-0.38900000,0.89100000,-0.21000000,-0.02000000,0.07000000,0.01500217,0.09373403,-0.04824978,-23.54000000,-13.49000000,0.01000000
554,0,0.23000000,-0.38400000,0.89200000,0.26000000,0.05000000,-0.04000000,0.01526410,0.09378440,-0.04829008,-23.54000000,-13.49000000,0.01000000
555,0,0.23800000,-0.39100000,0.89100000,-0.18000000,0.23000000,-0.17000000,0.00514435,0.10671520,-0.05784762,-23.54000000,-13.49000000,0.01000000
556,0,0.23400000,-0.38500000,0.89200000,-0.05000000,-0.00000000,0.04000000,0.00509111,0.10671520,-0.05780504,-23.54000000,-13.49000000,0.01000000
557,0,0.23300000,-0.39100000,0.89000000,0.17000000,0.15000000,0.20000000,0.00526489,0.10686853,-0.05760060,-23.54000000,-13.49000000,0.01000000
558,0,0.23400000,-0.38900000,0.89300000,0.06000000,0.16000000,0.07000000,0.00532569,0.10703067,-0.05752966,-23.54000000,-13.49000000,0.01000000
559,0,0.23600000,-0.38800000,0.89200000,-0.05000000,-0.09000000,0.08000000,0.00527533,0.10694003,-0.05744909,-23.54000000,-13.49000000,0.01000000
560,0,0.23300000,-0.38500000,0.89200000,0.22000000,-0.11000000,0.14000000,0.00549728,0.10682905,-0.05730785,-23.54000000,-13.49000000,0.01000000
561,0,0.23100000,-0.38800000,0.89100000,0.03000000,0.01000000,-0.08000000,0.00716033,0.10738340,-0.06174265,-23.54000000,-13.49000000,0.01000000
562,0,0.22900000,-0.38600000,0.89200000,-0.01000000,-0.08000000,0.01000000,0.00714969,0.10729827,-0.06173201,-23.54000000,-13.49000000,0.01000000
563,0,0.23200000,-0.38600000,0.89100000,0.05000000,0.12000000,-0.11000000,0.00720100,0.10742142,-0.06184490,-23.54000000,-13.49000000,0.00000000
564,0,0.23500000,-0.39100000,0.88900000,-0.06000000,-0.17000000,-0.11000000,0.00714054,0.10725012,-0.06195574,-23.54000000,-13.49000000,0.01000000
565,0,0.23600000,-0.38700000,0.89100000,0.09000000,-0.26000000,0.16000000,0.00723108,0.10698856,-0.06179478,-23.53000000,-13.49000000,0.01000000
566,0,0.23500000,-0.39500000,0.88700000,-0.14000000,0.09000000,0.17000000,0.00709004,0.10707923,-0.06162352,-23.54000000,-13.49000000,0.00000000
567,0,0.23800000,-0.39000000,0.89000000,-0.09000000,-0.05000000,-0.05000000,0.00207892,0.10429527,-0.06440748,-23.54000000,-13.49000000,0.01000000
568,0,0.22800000,-0.38700000,0.89300000,0.08000000,0.02000000,-0.01000000,0.00216403,0.10431655,-0.06441812,-23.54000000,-13.49000000,0.01000000
569,0,0.23400000,-0.39200000,0.89200000,-0.06000000,0.16000000,0.22000000,0.00210214,0.10448159,-0.06419119,-23.54000000,-13.49000000,0.01000000
570,0,0.23500000,-0.38600000,0.89300000,0.13000000,0.19000000,0.05000000,0.00223332,0.10467331,-0.06414073,-23.53000000,-13.49000000,0.01000000
571,0,0.23500000,-0.38500000,0.89000000,-0.11000000,-0.23000000,0.06000000,0.00212324,0.10444314,-0.06408069,-23.54000000,-13.49000000,0.01000000
572,0,0.23800000,-0.39100000,0.89600000,-0.20000000,0.17000000,0.14000000,0.00191913,0.10461663,-0.06393781,-23.54000000,-13.49000000,0.01000000
573,0,0.23000000,-0.38900000,0.89000000,-0.07000000,0.08000000,-0.24000000,-0.00201568,0.10911356,-0.07742859,-23.54000000,-13.49000000,0.01000000
574,0,0.23600000,-0.38900000,0.89300000,0.10000000,0.01000000,0.19000000,-0.00190812,0.10912432,-0.07722423,-23.54000000,-13.49000000,0.01000000
575,0,0.23500000,-0.38600000,0.88900000,-0.10000000,0.14000000,0.08000000,-0.00200936,0.10926606,-0.07714323,-23.54000000,-13.49000000,0.01000000
576,0,0.23200000,-0.39100000,0.89000000,-0.18000000,-0.10000000,-0.05000000,-0.00218996,0.10916572,-0.07719340,-23.54000000,-13.50000000,0.01000000
577,0,0.23100000,-0.39000000,0.89700000,0.01000000,-0.15000000,0.02000000,-0.00217991,0.10901486,-0.07717329,-23.54000000,-13.50000000,0.01000000
578,0,0.22900000,-0.38600000,0.89100000,-0.03000000,0.04000000,0.10000000,-0.00221072,0.10905594,-0.07707056,-23.54000000,-13.50000000,0.01000000
579,0,0.23200000,-0.39000000,0.89200000,0.29000000,-0.20000000,-0.25000000,0.01386323,0.09797046,-0.09092742,-23.54000000,-13.50000000,0.01000000
580,0,0.23200000,-0.39100000,0.89100000,-0.19000000,0.11000000,0.21000000,0.01366008,0.09808807,-0.09070289,-23.54000000,-13.49000000,0.01000000
581,0,0.23100000,-0.38800000,0.88900000,-0.24000000,0.33000000,-0.06000000,0.01341653,0.09842296,-0.09076378,-23.54000000,-13.49000000,0.01000000
582,0,0.22900000,-0.38700000,0.89300000,0.07000000,-0.00000000,0.18000000,0.01348727,0.09842296,-0.09058189,-23.54000000,-13.49000000,0.01000000
583,0,0.23400000,-0.39000000,0.88900000,0.15000000,-0.00000000,-0.09000000,0.01363831,0.09842296,-0.09067251,-23.54000000,-13.49000000,0.01000000
584,0,0.23000000,-0.38900000,0.89900000,-0.01000000,-0.20000000,-0.02000000,0.01362814,0.09821961,-0.09069285,-23.54000000,-13.49000000,0.01000000
585,0,0.23000000,-0.39000000,0.89200000,-0.09000000,0.03000000,-0.10000000,0.00854655,0.09991348,-0.09633906,-23.54000000,-13.49000000,0.01000000
586,0,0.23000000,-0.38800000,0.89600000,-0.05000000,0.05000000,-0.00000000,0.00849320,0.09996683,-0.09633906,-23.54000000,-13.49000000,0.01000000
587,0,0.23100000,-0.38800000,0.89500000,-0.02000000,0.01000000,-0.06000000,0.00847298,0.09997694,-0.09639972,-23.54000000,-13.49000000,0.01000000
588,0,0.23600000,-0.38800000,0.89200000,0.03000000,-0.08000000,-0.16000000,0.00850307,0.09989669,-0.09656022,-23.54000000,-13.49000000,0.01000000
589,0,0.23300000,-0.39100000,0.89200000,0.00000000,-0.05000000,0.04000000,0.00850307,0.09984629,-0.09651991,-23.54000000,-13.49000000,0.01000000
590,0,0.22700000,-0.38900000,0.89400000,-0.03000000,0.22000000,-0.09000000,0.00847249,0.10007055,-0.09661165,-23.54000000,-13.49000000,0.01000000
591,0,0.23500000,-0.38200000,0.89100000,0.14000000,-0.10000000,0.12000000,0.01623510,0.09452583,-0.08995798,-23.54000000,-13.49000000,0.01000000
592,0,0.23300000,-0.39000000,0.89400000,-0.15000000,-0.02000000,0.16000000,0.01607583,0.09450459,-0.08978810,-23.54000000,-13.49000000,0.01000000
593,0,0.23600000,-0.39300000,0.89400000,-0.16000000,-0.17000000,-0.10000000,0.01591377,0.09433240,-0.08988939,-23.55000000,-13.49000000,0.01000000
594,0,0.23500000,-0.38900000,0.89200000,0.24000000,0.12000000,-0.15000000,0.01615555,0.09445329,-0.09004050,-23.54000000,-13.49000000,0.01000000
595,0,0.23300000,-0.39200000,0.89600000,-0.18000000,-0.14000000,0.13000000,0.01597447,0.09431245,-0.08990972,-23.55000000,-13.49000000,0.01000000
596,0,0.23600000,-0.38500000,0.89200000,-0.16000000,-0.09000000,0.18000000,0.01581336,0.09422183,-0.08972847,-23.55000000,-13.49000000,0.01000000
597,0,0.23300000,-0.39200000,0.89300000,0.04000000,-0.14000000,-0.05000000,0.01803177,0.08645738,-0.09250149,-23.55000000,-13.49000000,0.01000000
598,0,0.23400000,-0.38700000,0.89600000,-0.10000000,-0.03000000,0.10000000,0.01792576,0.08642558,-0.09239548,-23.55000000,-13.49000000,0.01000000
599,0,0.23300000,-0.38900000,0.89400000,-0.08000000,0.12000000,-0.03000000,0.01784454,0.08654741,-0.09242594,-23.55000000,-13.49000000,0.01000000
600,0,0.22800000,-0.38800000,0.89400000,0.03000000,-0.02000000,-0.15000000,0.01787469,0.08652731,-0.09257669,-23.55000000,-13.49000000,0.01000000
601,0,0.23600000,-0.39100000,0.89500000,0.14000000,0.11000000,0.20000000,0.01801639,0.08663865,-0.09237425,-23.55000000,-13.49000000,0.01000000
602,0,0.23300000,-0.38700000,0.88900000,-0.15000000,-0.26000000,0.15000000,0.01786542,0.08637697,-0.09222328,-23.55000000,-13.49000000,0.01000000
603,0,0.23500000,-0.39300000,0.88600000,0.27000000,-0.03000000,0.08000000,0.03312179,0.08468182,-0.08770288,-23.55000000,-13.49000000,0.01000000
604,0,0.23000000,-0.39200000,0.88900000,-0.45000000,-0.09000000,-0.23000000,0.03264034,0.08458553,-0.08794895,-23.55000000,-13.49000000,0.01000000
605,0,0.23000000,-0.38600000,0.89000000,-0.11000000,-0.07000000,0.13000000,0.03252866,0.08451446,-0.08781697,-23.55000000,-13.49000000,0.01000000
606,0,0.23000000,-0.39000000,0.89100000,0.07000000,-0.27000000,0.13000000,0.03259968,0.08424053,-0.08768507,-23.55000000,-13.49000000,0.01000000
607,0,0.23400000,-0.38900000,0.89100000,-0.11000000,0.04000000,0.08000000,0.03248871,0.08428088,-0.08760436,-23.55000000,-13.49000000,0.02000000
608,0,0.23200000,-0.39000000,0.88700000,0.09000000,0.07000000,-0.02000000,0.03258420,0.08435515,-0.08762558,-23.55000000,-13.49000000,0.02000000
609,0,0.23000000,-0.38200000,0.89200000,0.05000000,0.05000000,-0.01000000,0.03535058,0.08712153,-0.08817886,-23.55000000,-13.49000000,0.02000000
610,0,0.23000000,-0.38800000,0.89000000,0.02000000,-0.13000000,0.04000000,0.03537186,0.08698322,-0.08813630,-23.55000000,-13.48000000,0.02000000
611,0,0.23200000,-0.39100000,0.89300000,-0.21000000,-0.08000000,-0.15000000,0.03515875,0.08690203,-0.08828852,-23.55000000,-13.48000000,0.02000000
612,0,0.23200000,-0.38800000,0.89000000,0.09000000,0.02000000,0.19000000,0.03525034,0.08692239,-0.08809517,-23.55000000,-13.48000000,0.02000000
613,0,0.23400000,-0.38900000,0.89100000,-0.02000000,-0.20000000,0.31000000,0.03523004,0.08671943,-0.08778057,-23.55000000,-13.48000000,0.02000000
614,0,0.22700000,-0.39000000,0.89600000,0.23000000,0.07000000,0.16000000,0.03546186,0.08678998,-0.08761931,-23.55000000,-13.48000000,0.02000000
615,0,0.23700000,-0.38200000,0.89200000,-0.05000000,0.07000000,0.14000000,0.03268651,0.09067547,-0.07984832,-23.55000000,-13.48000000,0.02000000
616,0,0.23500000,-0.39000000,0.89100000,-0.14000000,0.47000000,-0.16000000,0.03253706,0.09117720,-0.08001912,-23.55000000,-13.48000000,0.02000000
617,0,0.23400000,-0.38700000,0.89500000,-0.25000000,0.07000000,-0.03000000,0.03228359,0.09124817,-0.08004954,-23.55000000,-13.48000000,0.01000000
618,0,0.23200000,-0.39300000,0.89500000,-0.23000000,0.11000000,-0.00000000,0.03205051,0.09135964,-0.08004954,-23.55000000,-13.48000000,0.01000000
619,0,0.23800000,-0.38900000,0.89600000,0.02000000,-0.23000000,-0.09000000,0.03207060,0.09112859,-0.08013995,-23.55000000,-13.49000000,0.01000000
620,0,0.22900000,-0.39300000,0.89300000,-0.03000000,0.18000000,-0.06000000,0.03204045,0.09130954,-0.08020027,-23.55000000,-13.49000000,0.02000000
621,0,0.23000000,-0.38600000,0.89100000,0.40000000,0.18000000,0.28000000,0.05459889,0.10146084,-0.06440936,-23.55000000,-13.49000000,0.01000000
622,0,0.23000000,-0.38800000,0.89400000,-0.19000000,-0.14000000,-0.04000000,0.05439733,0.10131233,-0.06445179,-23.55000000,-13.49000000,0.01000000
623,0,0.23600000,-0.39200000,0.88900000,0.09000000,-0.17000000,-0.11000000,0.05448963,0.10113798,-0.06456460,-23.55000000,-13.49000000,0.01000000
624,0,0.22900000,-0.39000000,0.89200000,-0.14000000,-0.28000000,-0.10000000,0.05434893,0.10085657,-0.06466510,-23.55000000,-13.49000000,0.01000000
625,0,0.23000000,-0.38800000,0.89000000,0.06000000,-0.11000000,-0.12000000,0.05440896,0.10074652,-0.06478516,-23.55000000,-13.49000000,0.02000000
626,0,0.23300000,-0.38900000,0.89100000,0.06000000,0.13000000,-0.30000000,0.05446884,0.10087627,-0.06508460,-23.55000000,-13.49000000,0.01000000
627,0,0.23700000,-0.39000000,0.89000000,-0.15000000,-0.15000000,0.14000000,0.04614697,0.09255440,-0.05731752,-23.55000000,-13.49000000,0.01000000
628,0,0.23400000,-0.39100000,0.89000000,0.02000000,0.02000000,0.31000000,0.04616829,0.09257572,-0.05698711,-23.55000000,-13.49000000,0.02000000
629,0,0.23600000,-0.38400000,0.89100000,-0.30000000,-0.13000000,0.11000000,0.04585998,0.09244212,-0.05687406,-23.55000000,-13.49000000,0.02000000
630,0,0.23300000,-0.38400000,0.89000000,0.08000000,0.10000000,0.11000000,0.04594100,0.09254338,-0.05676267,-23.55000000,-13.49000000,0.01000000
631,0,0.23800000,-0.38800000,0.89200000,-0.09000000,-0.23000000,-0.06000000,0.04585063,0.09231245,-0.05682292,-23.55000000,-13.49000000,0.01000000
632,0,0.23400000,-0.38900000,0.89400000,0.03000000,0.05000000,0.04000000,0.04588082,0.09236277,-0.05678266,-23.55000000,-13.49000000,0.01000000
633,0,0.23200000,-0.39000000,0.89200000,-0.09000000,-0.06000000,-0.08000000,0.04088978,0.08903541,-0.06121914,-23.55000000,-13.49000000,0.01000000
634,0,0.23500000,-0.38500000,0.89400000,-0.29000000,-0.20000000,0.04000000,0.04058145,0.08882276,-0.06117661,-23.55000000,-13.49000000,0.02000000
635,0,0.23300000,-0.38800000,0.88600000,-0.09000000,0.09000000,-0.06000000,0.04048949,0.08891472,-0.06123791,-23.55000000,-13.49000000,0.02000000
636,0,0.23500000,-0.38800000,0.89200000,-0.13000000,-0.11000000,-0.07000000,0.04035871,0.08880406,-0.06130833,-23.55000000,-13.49000000,0.01000000
637,0,0.23300000,-0.38700000,0.89100000,0.12000000,0.26000000,-0.06000000,0.04047981,0.08906642,-0.06136888,-23.55000000,-13.49000000,0.01000000
638,0,0.23300000,-0.38400000,0.89400000,0.16000000,-0.18000000,0.01000000,0.04064057,0.08888556,-0.06135883,-23.55000000,-13.49000000,0.01000000
639,0,0.22900000,-0.38600000,0.89000000,-0.09000000,0.10000000,0.22000000,0.03556213,0.09452827,-0.04894487,-23.55000000,-13.48000000,0.01000000
640,0,0.23800000,-0.38700000,0.89500000,-0.09000000,-0.05000000,0.19000000,0.03546539,0.09447453,-0.04874064,-23.55000000,-13.48000000,0.02000000
641,0,0.23400000,-0.39300000,0.89300000,-0.06000000,0.27000000,0.08000000,0.03540452,0.09474846,-0.04865947,-23.55000000,-13.48000000,0.02000000
642,0,0.23600000,-0.39100000,0.89300000,0.22000000,0.01000000,-0.07000000,0.03562510,0.09475849,-0.04872966,-23.55000000,-13.48000000,0.02000000
643,0,0.22800000,-0.38800000,0.89200000,0.14000000,0.01000000,0.12000000,0.03576571,0.09476853,-0.04860914,-23.55000000,-13.48000000,0.02000000
644,0,0.23600000,-0.39000000,0.88900000,0.25000000,-0.10000000,0.03000000,0.03601703,0.09466800,-0.04857898,-23.55000000,-13.48000000,0.02000000
645,0,0.23400000,-0.38600000,0.89400000,0.19000000,-0.14000000,0.16000000,0.04712648,0.08648209,-0.03922365,-23.55000000,-13.48000000,0.02000000
646,0,0.23200000,-0.39400000,0.88800000,-0.25000000,-0.00000000,-0.13000000,0.04686146,0.08648209,-0.03936146,-23.55000000,-13.48000000,0.02000000
647,0,0.22900000,-0.39000000,0.89400000,0.04000000,-0.06000000,0.30000000,0.04690205,0.08642120,-0.03905702,-23.55000000,-13.48000000,0.02000000
648,0,0.23400000,-0.38800000,0.88900000,0.18000000,0.18000000,-0.06000000,0.04709158,0.08661073,-0.03912020,-23.55000000,-13.49000000,0.02000000
649,0,0.23100000,-0.39000000,0.89300000,-0.02000000,0.18000000,0.02000000,0.04707118,0.08679434,-0.03909980,-23.55000000,-13.48000000,0.02000000
650,0,0.23700000,-0.38400000,0.89200000,-0.01000000,-0.11000000,0.03000000,0.04706107,0.08668313,-0.03906947,-23.55000000,-13.49000000,0.01000000
651,0,0.23300000,-0.39200000,0.89000000,-0.03000000,0.09000000,0.08000000,0.04703082,0.08677389,-0.03898880,-23.55000000,-13.49000000,0.02000000
652,0,0.23200000,-0.38700000,0.89100000,0.08000000,-0.10000000,-0.14000000,0.05146400,0.08123241,-0.04674687,-23.55000000,-13.49000000,0.02000000
653,0,0.23300000,-0.38200000,0.89100000,0.09000000,-0.02000000,0.04000000,0.05156257,0.08121050,-0.04670306,-23.55000000,-13.49000000,0.01000000
654,0,0.22800000,-0.38600000,0.88900000,-0.13000000,0.23000000,-0.30000000,0.05141629,0.08146930,-0.04704062,-23.55000000,-13.49000000,0.01000000
655,0,0.23700000,-0.39100000,0.89500000,-0.07000000,-0.19000000,0.08000000,0.05134367,0.08127218,-0.04695762,-23.55000000,-13.49000000,0.01000000
656,0,0.23400000,-0.39400000,0.89300000,0.00000000,0.04000000,0.00000000,0.05134367,0.08131268,-0.04695762,-23.55000000,-13.49000000,0.01000000
657,0,0.23800000,-0.39000000,0.88600000,-0.19000000,0.04000000,0.14000000,0.05115149,0.08135314,-0.04681602,-23.55000000,-13.49000000,0.02000000
658,0,0.23000000,-0.39300000,0.89200000,0.11000000,0.06000000,-0.22000000,0.05733903,0.08472817,-0.05919111,-23.55000000,-13.49000000,0.01000000
659,0,0.23400000,-0.38600000,0.89300000,0.09000000,-0.11000000,0.16000000,0.05743569,0.08461003,-0.05901928,-23.55000000,-13.49000000,0.02000000
660,0,0.23200000,-0.38700000,0.89000000,0.07000000,0.09000000,0.24000000,0.05750654,0.08470113,-0.05877636,-23.55000000,-13.49000000,0.02000000
661,0,0.23100000,-0.39200000,0.88900000,0.08000000,0.29000000,0.19000000,0.05758712,0.08499321,-0.05858499,-23.55000000,-13.49000000,0.01000000
662,0,0.23400000,-0.38600000,0.89300000,0.08000000,0.14000000,-0.08000000,0.05767263,0.08514286,-0.05867051,-23.55000000,-13.49000000,0.01000000
663,0,0.23600000,-0.38900000,0.89700000,0.15000000,0.09000000,-0.12000000,0.05782661,0.08523525,-0.05879369,-23.55000000,-13.49000000,0.01000000
664,0,0.23600000,-0.39000000,0.89500000,-0.18000000,-0.11000000,0.06000000,0.04786083,0.07914505,-0.05547176,-23.55000000,-13.49000000,0.01000000
665,0,0.22800000,-0.39200000,0.88800000,-0.03000000,0.09000000,-0.09000000,0.04782843,0.07924224,-0.05556895,-23.55000000,-13.49000000,0.01000000
666,0,0.22600000,-0.38800000,0.89000000,-0.04000000,-0.05000000,-0.05000000,0.04778789,0.07919156,-0.05561963,-23.55000000,-13.49000000,0.01000000
667,0,0.23700000,-0.39100000,0.89400000,-0.08000000,-0.19000000,0.01000000,0.04770760,0.07900087,-0.05560960,-23.55000000,-13.49000000,0.01000000
668,0,0.23300000,-0.38800000,0.89100000,-0.07000000,-0.06000000,0.05000000,0.04763733,0.07894064,-0.05555940,-23.55000000,-13.49000000,0.01000000
669,0,0.23400000,-0.39000000,0.89000000,-0.08000000,-0.15000000,0.02000000,0.04755620,0.07878853,-0.05553912,-23.55000000,-13.49000000,0.01000000
670,0,0.23400000,-0.39100000,0.88800000,0.00000000,0.19000000,0.04000000,0.04755620,0.08932934,-0.05332000,-23.55000000,-13.49000000,0.01000000
671,0,0.23600000,-0.38400000,0.89100000,-0.14000000,-0.07000000,-0.10000000,0.04740628,0.08925438,-0.05342709,-23.55000000,-13.49000000,0.01000000
672,0,0.23100000,-0.38500000,0.89500000,-0.05000000,-0.08000000,-0.04000000,0.04735465,0.08917177,-0.05346839,-23.55000000,-13.49000000,0.01000000
673,0,0.23900000,-0.39100000,0.89100000,0.32000000,-0.09000000,0.06000000,0.04767603,0.08908138,-0.05340814,-23.54000000,-13.49000000,0.01000000
674,0,0.23500000,-0.39000000,0.89200000,-0.02000000,-0.05000000,-0.22000000,0.04765612,0.08903160,-0.05362715,-23.55000000,-13.49000000,0.01000000
675,0,0.23500000,-0.39100000,0.88700000,0.28000000,-0.11000000,-0.09000000,0.04793707,0.08892123,-0.05371745,-23.54000000,-13.49000000,0.01000000
676,0,0.23500000,-0.38800000,0.88900000,-0.11000000,0.23000000,0.15000000,0.04128474,0.10283064,-0.04464610,-23.54000000,-13.49000000,0.01000000
677,0,0.23500000,-0.38900000,0.89400000,0.20000000,0.17000000,-0.04000000,0.04150573,0.10301848,-0.04469029,-23.55000000,-13.49000000,0.01000000
678,0,0.23300000,-0.39100000,0.89400000,-0.03000000,-0.09000000,0.07000000,0.04147439,0.10292447,-0.04461717,-23.55000000,-13.49000000,0.01000000
679,0,0.23700000,-0.38600000,0.89400000,0.13000000,-0.15000000,0.08000000,0.04161068,0.10276720,-0.04453330,-23.55000000,-13.49000000,0.01000000
680,0,0.23500000,-0.38700000,0.88700000,-0.03000000,0.07000000,0.06000000,0.04157834,0.10284268,-0.04446860,-23.54000000,-13.49000000,0.01000000
681,0,0.23000000,-0.38000000,0.89300000,-0.07000000,-0.17000000,0.12000000,0.04137547,0.10235000,-0.04412083,-23.54000000,-13.49000000,0.01000000
682,0,0.23100000,-0.38500000,0.88600000,-0.10000000,-0.01000000,0.06000000,0.03642539,0.10185500,-0.04115078,-23.54000000,-13.49000000,0.01000000
683,0,0.23500000,-0.38700000,0.89500000,-0.07000000,-0.08000000,0.00000000,0.03634222,0.10175994,-0.04115078,-23.54000000,-13.49000000,0.01000000
684,0,0.23200000,-0.39000000,0.88900000,0.05000000,0.19000000,-0.17000000,0.03646107,0.10221155,-0.04155486,-23.54000000,-13.49000000,0.01000000
685,0,0.23000000,-0.38800000,0.89200000,0.32000000,-0.17000000,-0.03000000,0.03683913,0.10201071,-0.04159030,-23.54000000,-13.49000000,0.01000000
686,0,0.23400000,-0.39000000,0.89200000,0.18000000,-0.15000000,-0.36000000,0.03710407,0.10178993,-0.04212017,-23.54000000,-13.49000000,0.01000000
687,0,0.23300000,-0.39000000,0.89300000,-0.11000000,-0.05000000,-0.18000000,0.03693220,0.10171180,-0.04240141,-23.54000000,-13.49000000,0.01000000
688,0,0.23300000,-0.38800000,0.89200000,-0.02000000,-0.13000000,0.12000000,0.03587045,0.09481042,-0.03603090,-23.54000000,-13.49000000,0.01000000
689,0,0.23400000,-0.39100000,0.89200000,-0.04000000,0.20000000,0.04000000,0.03580919,0.09511671,-0.03596964,-23.54000000,-13.49000000,0.01000000
690,0,0.23400000,-0.38800000,0.89000000,0.08000000,-0.16000000,0.06000000,0.03592038,0.09489434,-0.03588625,-23.54000000,-13.49000000,0.01000000
691,0,0.23200000,-0.38500000,0.89100000,-0.27000000,-0.30000000,-0.12000000,0.03544444,0.09436552,-0.03609778,-23.54000000,-13.49000000,0.01000000
692,0,0.23000000,-0.39300000,0.89000000,0.02000000,0.12000000,-0.23000000,0.03546747,0.09450372,-0.03636266,-23.54000000,-13.49000000,0.01000000
693,0,0.23300000,-0.38600000,0.89100000,0.03000000,-0.00000000,0.00000000,0.03551901,0.09450372,-0.03636266,-23.54000000,-13.49000000,0.01000000
694,0,0.23300000,-0.39100000,0.88900000,-0.08000000,-0.15000000,0.26000000,0.03123658,0.08647417,-0.02244478,-23.54000000,-13.49000000,0.01000000
695,0,0.23100000,-0.39100000,0.89300000,-0.25000000,0.10000000,0.10000000,0.03095940,0.08658504,-0.02233391,-23.55000000,-13.48000000,0.01000000
696,0,0.23000000,-0.39000000,0.89000000,0.09000000,-0.23000000,0.14000000,0.03105449,0.08634204,-0.02218599,-23.55000000,-13.48000000,0.01000000
697,0,0.23300000,-0.38900000,0.89100000,0.12000000,-0.03000000,0.13000000,0.03118476,0.08630947,-0.02204486,-23.55000000,-13.49000000,0.01000000
698,0,0.23400000,-0.39000000,0.89600000,0.12000000,-0.02000000,0.10000000,0.03131749,0.08628735,-0.02193425,-23.55000000,-13.49000000,0.01000000
699,0,0.23700000,-0.39100000,0.89300000,0.20000000,0.11000000,0.05000000,0.03153586,0.08640745,-0.02187966,-23.55000000,-13.49000000,0.01000000
700,0,0.23300000,-0.38700000,0.89000000,0.13000000,0.11000000,0.11000000,0.03870494,0.09247360,-0.01581351,-23.55000000,-13.49000000,0.01000000
701,0,0.23000000,-0.38600000,0.89000000,-0.17000000,-0.36000000,0.08000000,0.03852497,0.09209247,-0.01572882,-23.55000000,-13.49000000,0.01000000
702,0,0.23700000,-0.38700000,0.88800000,-0.15000000,0.03000000,-0.08000000,0.03837317,0.09212283,-0.01580977,-23.55000000,-13.49000000,0.01000000
703,0,0.23000000,-0.38800000,0.89000000,0.10000000,-0.25000000,-0.05000000,0.03847587,0.09186609,-0.01586112,-23.55000000,-13.48000000,0.01000000
704,0,0.23200000,-0.39400000,0.89300000,-0.04000000,0.21000000,0.06000000,0.03843562,0.09207740,-0.01580075,-23.55000000,-13.48000000,0.01000000
705,0,0.23400000,-0.39400000,0.89000000,-0.19000000,0.06000000,0.17000000,0.03824362,0.09213803,-0.01562896,-23.55000000,-13.48000000,0.01000000
706,0,0.23400000,-0.38800000,0.89200000,-0.00000000,-0.14000000,0.01000000,0.03824362,0.08436911,-0.01507403,-23.55000000,-13.48000000,0.01000000
707,0,0.23300000,-0.38600000,0.88700000,0.08000000,0.12000000,-0.08000000,0.03833017,0.08449893,-0.01516058,-23.55000000,-13.48000000,0.01000000
708,0,0.23000000,-0.38900000,0.88700000,0.30000000,0.08000000,0.01000000,0.03863669,0.08458067,-0.01515036,-23.55000000,-13.48000000,0.01000000
709,0,0.23100000,-0.39100000,0.88700000,0.18000000,0.01000000,-0.05000000,0.03881952,0.08459082,-0.01520115,-23.55000000,-13.48000000,0.01000000
710,0,0.23100000,-0.38800000,0.89100000,-0.06000000,0.12000000,0.10000000,0.03875921,0.08471146,-0.01510062,-23.55000000,-13.48000000,0.01000000
711,0,0.23100000,-0.39000000,0.89400000,-0.21000000,-0.01000000,0.06000000,0.03854765,0.08470138,-0.01504018,-23.55000000,-13.48000000,0.01000000
712,0,0.22600000,-0.38600000,0.89000000,0.23000000,0.01000000,0.03000000,0.05150559,0.08526477,-0.01335001,-23.55000000,-13.48000000,0.01000000
713,0,0.23500000,-0.39200000,0.88600000,-0.04000000,0.19000000,0.36000000,0.05146323,0.08546601,-0.01296871,-23.55000000,-13.48000000,0.01000000
714,0,0.23600000,-0.39000000,0.89300000,0.15000000,0.00000000,0.03000000,0.05161591,0.08546601,-0.01293818,-23.55000000,-13.48000000,0.02000000
715,0,0.23300000,-0.38800000,0.89500000,-0.01000000,0.02000000,-0.10000000,0.05160574,0.08548635,-0.01303990,-23.55000000,-13.48000000,0.01000000
716,0,0.23400000,-0.38400000,0.89100000,0.07000000,0.17000000,0.04000000,0.05167601,0.08565701,-0.01299974,-23.55000000,-13.48000000,0.01000000
717,0,0.22700000,-0.39100000,0.89200000,-0.07000000,0.22000000,-0.01000000,0.05160542,0.08587885,-0.01300983,-23.55000000,-13.48000000,0.01000000
718,0,0.23100000,-0.38800000,0.89500000,-0.18000000,-0.05000000,0.16000000,0.04162287,0.08310592,-0.00413644,-23.55000000,-13.48000000,0.01000000
719,0,0.22800000,-0.38700000,0.88800000,0.24000000,-0.08000000,0.07000000,0.04187764,0.08302100,-0.00406213,-23.55000000,-13.48000000,0.01000000
720,0,0.23300000,-0.39100000,0.88900000,-0.06000000,0.13000000,-0.09000000,0.04181625,0.08315401,-0.00415422,-23.55000000,-13.48000000,0.02000000
721,0,0.23300000,-0.38600000,0.89000000,0.31000000,-0.09000000,-0.10000000,0.04212796,0.08306351,-0.00425477,-23.55000000,-13.48000000,0.01000000
722,0,0.23300000,-0.38800000,0.89100000,-0.12000000,-0.06000000,0.31000000,0.04200730,0.08300318,-0.00394306,-23.55000000,-13.48000000,0.01000000
723,0,0.23600000,-0.39100000,0.89100000,0.13000000,-0.05000000,0.03000000,0.04213842,0.08295275,-0.00391280,-23.55000000,-13.48000000,0.01000000
724,0,0.23300000,-0.38900000,0.89500000,0.10000000,0.05000000,-0.16000000,0.04768900,0.08572804,-0.01279374,-23.55000000,-13.48000000,0.01000000
725,0,0.23300000,-0.38300000,0.89200000,0.03000000,-0.03000000,0.33000000,0.04772100,0.08569604,-0.01244178,-23.55000000,-13.48000000,0.01000000
726,0,0.23200000,-0.39200000,0.88900000,0.22000000,-0.02000000,0.01000000,0.04794908,0.08567531,-0.01243141,-23.55000000,-13.48000000,0.02000000
727,0,0.23200000,-0.38800000,0.89300000,-0.20000000,-0.28000000,0.03000000,0.04774731,0.08539283,-0.01240115,-23.55000000,-13.48000000,0.01000000
728,0,0.23900000,-0.39500000,0.89400000,-0.03000000,0.31000000,-0.19000000,0.04771718,0.08570424,-0.01259201,-23.55000000,-13.48000000,0.01000000
729,0,0.23500000,-0.38900000,0.89200000,-0.09000000,-0.19000000,-0.06000000,0.04762638,0.08551256,-0.01265254,-23.56000000,-13.48000000,0.01000000
730,0,0.23100000,-0.38900000,0.88700000,-0.03000000,0.05000000,0.06000000,0.04593518,0.08833122,-0.00927015,-23.56000000,-13.48000000,0.01000000
731,0,0.24000000,-0.38600000,0.89300000,0.27000000,0.15000000,-0.05000000,0.04622463,0.08849203,-0.00932375,-23.55000000,-13.48000000,0.01000000
732,0,0.23100000,-0.39000000,0.89000000,-0.11000000,0.01000000,0.03000000,0.04611389,0.08850210,-0.00929355,-23.55000000,-13.48000000,0.01000000
733,0,0.23300000,-0.38700000,0.89000000,-0.13000000,0.06000000,0.14000000,0.04598215,0.08856290,-0.00915168,-23.56000000,-13.48000000,0.01000000
734,0,0.23300000,-0.39300000,0.89300000,0.28000000,0.13000000,-0.21000000,0.04626310,0.08869334,-0.00936238,-23.56000000,-13.48000000,0.01000000
735,0,0.23500000,-0.39000000,0.89500000,-0.15000000,-0.05000000,0.02000000,0.04610944,0.08864212,-0.00934190,-23.55000000,-13.48000000,0.01000000
736,0,0.23600000,-0.38900000,0.89000000,-0.13000000,-0.02000000,-0.03000000,0.03890152,0.08753321,-0.01100526,-23.55000000,-13.48000000,0.01000000
737,0,0.23500000,-0.38800000,0.88900000,-0.15000000,-0.08000000,-0.21000000,0.03874076,0.08744746,-0.01123034,-23.56000000,-13.48000000,0.02000000
738,0,0.23600000,-0.38500000,0.88700000,0.03000000,0.00000000,-0.33000000,0.03877099,0.08744746,-0.01156295,-23.56000000,-13.48000000,0.02000000
739,0,0.23400000,-0.38900000,0.89300000,0.06000000,-0.08000000,0.13000000,0.03883101,0.08736744,-0.01143291,-23.56000000,-13.48000000,0.01000000
740,0,0.23300000,-0.38800000,0.89500000,0.09000000,-0.26000000,-0.13000000,0.03892088,0.08710781,-0.01156273,-23.56000000,-13.49000000,0.01000000
741,0,0.23100000,-0.38900000,0.89000000,0.07000000,-0.25000000,0.11000000,0.03899115,0.08685685,-0.01145231,-23.56000000,-13.49000000,0.01000000
742,0,0.23800000,-0.39200000,0.89700000,-0.08000000,-0.25000000,-0.02000000,0.03453405,0.07292841,-0.01256658,-23.56000000,-13.49000000,0.01000000
743,0,0.24100000,-0.39100000,0.89500000,-0.07000000,0.02000000,-0.16000000,0.03445908,0.07294983,-0.01273795,-23.56000000,-13.49000000,0.01000000
744,0,0.22900000,-0.39100000,0.88800000,0.14000000,-0.05000000,0.24000000,0.03460035,0.07289937,-0.01249577,-23.55000000,-13.49000000,0.01000000
745,0,0.23300000,-0.39400000,0.89500000,0.22000000,0.10000000,-0.14000000,0.03482020,0.07299931,-0.01263568,-23.55000000,-13.49000000,0.01000000
746,0,0.22900000,-0.38400000,0.89100000,0.26000000,-0.19000000,-0.26000000,0.03507952,0.07280980,-0.01289500,-23.55000000,-13.49000000,0.01000000
747,0,0.23400000,-0.38500000,0.89200000,-0.10000000,-0.16000000,0.01000000,0.03497835,0.07264792,-0.01288488,-23.55000000,-13.50000000,0.01000000
748,0,0.23300000,-0.39000000,0.88900000,-0.06000000,0.07000000,-0.27000000,0.03160436,0.07658425,-0.02806787,-23.55000000,-13.50000000,0.01000000
749,0,0.23400000,-0.38800000,0.89400000,0.05000000,-0.04000000,0.15000000,0.03165886,0.07654065,-0.02790435,-23.55000000,-13.50000000,0.01000000
750,0,0.23800000,-0.39000000,0.89100000,0.01000000,-0.02000000,0.06000000,0.03166918,0.07652001,-0.02784243,-23.55000000,-13.50000000,0.01000000
751,0,0.23300000,-0.38700000,0.88900000,-0.03000000,0.07000000,-0.14000000,0.03163915,0.07659009,-0.02798260,-23.55000000,-13.50000000,0.01000000
752,0,0.23300000,-0.39300000,0.89000000,0.08000000,0.16000000,0.12000000,0.03172212,0.07675605,-0.02785813,-23.55000000,-13.50000000,0.01000000
753,0,0.23400000,-0.38900000,0.88800000,-0.12000000,-0.05000000,-0.09000000,0.03159923,0.07670484,-0.02795030,-23.55000000,-13.50000000,0.01000000
754,0,0.23500000,-0.39200000,0.89000000,-0.11000000,-0.32000000,0.07000000,0.02549988,0.05896128,-0.02406890,-23.56000000,-13.50000000,0.01000000
755,0,0.23300000,-0.39000000,0.89400000,-0.32000000,0.22000000,-0.05000000,0.02515546,0.05919807,-0.02412271,-23.56000000,-13.50000000,0.01000000
756,0,0.23200000,-0.39000000,0.89200000,-0.13000000,-0.23000000,0.06000000,0.02502415,0.05896576,-0.02406211,-23.56000000,-13.50000000,0.01000000
757,0,0.23500000,-0.39100000,0.88800000,-0.06000000,-0.21000000,-0.00000000,0.02496426,0.05875616,-0.02406211,-23.56000000,-13.50000000,0.01000000
758,0,0.23200000,-0.39100000,0.89500000,-0.09000000,-0.18000000,0.14000000,0.02487383,0.05857529,-0.02392144,-23.56000000,-13.50000000,0.01000000
759,0,0.23500000,-0.38600000,0.89200000,0.11000000,0.17000000,-0.19000000,0.02498315,0.05874424,-0.02411027,-23.56000000,-13.50000000,0.01000000
760,0,0.23500000,-0.39100000,0.89000000,0.08000000,-0.18000000,0.03000000,0.02942969,0.04873954,-0.02244282,-23.56000000,-13.50000000,0.01000000
761,0,0.23000000,-0.39200000,0.89600000,0.10000000,-0.16000000,-0.07000000,0.02953446,0.04857191,-0.02251616,-23.56000000,-13.50000000,0.01000000
762,0,0.22800000,-0.39400000,0.89300000,-0.05000000,-0.13000000,0.06000000,0.02948433,0.04844156,-0.02245600,-23.56000000,-13.50000000,0.02000000
763,0,0.23300000,-0.39400000,0.89400000,0.16000000,0.00000000,0.13000000,0.02964571,0.04844156,-0.02232488,-23.56000000,-13.50000000,0.02000000
764,0,0.23100000,-0.38800000,0.89400000,-0.09000000,0.00000000,0.07000000,0.02955375,0.04844156,-0.02225336,-23.56000000,-13.50000000,0.02000000
765,0,0.23200000,-0.38700000,0.89200000,-0.14000000,-0.14000000,-0.19000000,0.02941341,0.04830122,-0.02244381,-23.56000000,-13.50000000,0.02000000
766,0,0.24000000,-0.38900000,0.88900000,0.10000000,0.01000000,-0.20000000,0.03504835,0.04886472,-0.03371369,-23.56000000,-13.50000000,0.01000000
767,0,0.23300000,-0.39200000,0.89400000,-0.27000000,-0.25000000,-0.09000000,0.03476611,0.04860339,-0.03380777,-23.56000000,-13.50000000,0.01000000
768,0,0.23000000,-0.38900000,0.89100000,-0.36000000,0.18000000,0.08000000,0.03440730,0.04878279,-0.03372804,-23.56000000,-13.50000000,0.01000000
769,0,0.23300000,-0.38500000,0.89000000,-0.08000000,-0.08000000,-0.14000000,0.03432697,0.04870246,-0.03386861,-23.56000000,-13.50000000,0.01000000
770,0,0.23200000,-0.38800000,0.89200000,-0.06000000,0.10000000,-0.08000000,0.03426631,0.04880356,-0.03394949,-23.56000000,-13.50000000,0.01000000
771,0,0.23500000,-0.39100000,0.88900000,0.11000000,0.16000000,0.07000000,0.03437637,0.04896365,-0.03387945,-23.56000000,-13.50000000,0.01000000
772,0,0.23500000,-0.39200000,0.89000000,-0.00000000,-0.04000000,-0.15000000,0.03437637,0.04662611,-0.04264521,-23.56000000,-13.50000000,0.01000000
773,0,0.23300000,-0.38700000,0.88800000,0.04000000,-0.08000000,0.01000000,0.03441917,0.04654052,-0.04263451,-23.56000000,-13.50000000,0.01000000
774,0,0.23700000,-0.39000000,0.89000000,-0.03000000,0.07000000,-0.15000000,0.03438933,0.04661014,-0.04278369,-23.56000000,-13.50000000,0.01000000
775,0,0.23700000,-0.39100000,0.89300000,0.04000000,0.23000000,-0.04000000,0.03442894,0.04683789,-0.04282330,-23.57000000,-13.50000000,0.01000000
776,0,0.23800000,-0.38900000,0.89100000,0.07000000,0.19000000,-0.26000000,0.03449827,0.04702609,-0.04308083,-23.56000000,-13.50000000,0.01000000
777,0,0.23300000,-0.39200000,0.89200000,-0.03000000,-0.25000000,-0.09000000,0.03446782,0.04677233,-0.04317219,-23.56000000,-13.50000000,0.01000000
778,0,0.23200000,-0.39100000,0.88800000,-0.22000000,0.15000000,0.07000000,0.03424661,0.04692315,-0.04310180,-23.56000000,-13.50000000,0.01000000
779,0,0.22900000,-0.38600000,0.88600000,0.02000000,0.13000000,0.23000000,0.03535905,0.05415404,-0.03030869,-23.56000000,-13.50000000,0.01000000
780,0,0.23600000,-0.38500000,0.89000000,-0.01000000,-0.13000000,0.34000000,0.03534859,0.05401802,-0.02995296,-23.56000000,-13.50000000,0.01000000
781,0,0.23300000,-0.39000000,0.89100000,-0.02000000,0.06000000,-0.14000000,0.03532868,0.05407775,-0.03009233,-23.56000000,-13.50000000,0.01000000
782,0,0.23800000,-0.39100000,0.88700000,0.10000000,-0.01000000,-0.12000000,0.03542802,0.05406782,-0.03021153,-23.56000000,-13.50000000,0.01000000
783,0,0.23100000,-0.38900000,0.89200000,0.10000000,-0.16000000,-0.05000000,0.03555370,0.05386673,-0.03027437,-23.56000000,-13.50000000,0.02000000
784,0,0.23300000,-0.38400000,0.89000000,0.02000000,-0.10000000,-0.26000000,0.03557434,0.05376353,-0.03054269,-23.56000000,-13.50000000,0.02000000
785,0,0.22900000,-0.39200000,0.88800000,0.01000000,0.13000000,0.08000000,0.03613626,0.06106850,-0.02604732,-23.56000000,-13.50000000,0.01000000
786,0,0.23600000,-0.38800000,0.89100000,0.19000000,0.13000000,0.29000000,0.03633428,0.06120399,-0.02574508,-23.56000000,-13.50000000,0.01000000
787,0,0.23000000,-0.38600000,0.89200000,0.21000000,-0.30000000,-0.01000000,0.03654304,0.06090576,-0.02575502,-23.56000000,-13.50000000,0.01000000
788,0,0.23400000,-0.38800000,0.89000000,-0.18000000,0.03000000,-0.01000000,0.03636007,0.06093626,-0.02576518,-23.56000000,-13.50000000,0.01000000
789,0,0.23500000,-0.38700000,0.89000000,0.44000000,0.02000000,0.14000000,0.03680354,0.06095642,-0.02562408,-23.56000000,-13.50000000,0.01000000
790,0,0.23300000,-0.38800000,0.89100000,-0.03000000,-0.32000000,0.01000000,0.03677339,0.06063480,-0.02561403,-23.56000000,-13.50000000,0.02000000
791,0,0.23600000,-0.38800000,0.89200000,0.13000000,0.09000000,0.16000000,0.04397549,0.06562087,-0.01674991,-23.56000000,-13.50000000,0.02000000
792,0,0.23600000,-0.38500000,0.89300000,0.08000000,-0.10000000,0.30000000,0.04406003,0.06551519,-0.01643288,-23.56000000,-13.50000000,0.02000000
793,0,0.23400000,-0.38400000,0.89300000,-0.06000000,0.16000000,-0.17000000,0.04399921,0.06567737,-0.01660520,-23.56000000,-13.50000000,0.02000000
794,0,0.22900000,-0.38700000,0.88900000,0.16000000,-0.24000000,0.19000000,0.04416120,0.06543439,-0.01641283,-23.56000000,-13.50000000,0.02000000
795,0,0.23500000,-0.39500000,0.89300000,-0.05000000,0.05000000,0.11000000,0.04411029,0.06548530,-0.01630084,-23.56000000,-13.50000000,0.02000000
796,0,0.22900000,-0.38300000,0.89100000,0.02000000,0.02000000,0.03000000,0.04413049,0.06550550,-0.01627054,-23.56000000,-13.50000000,0.02000000
797,0,0.23600000,-0.38700000,0.88900000,-0.16000000,0.01000000,0.12000000,0.03524212,0.06606102,-0.00960426,-23.56000000,-13.49000000,0.02000000
798,0,0.23300000,-0.39200000,0.89500000,-0.04000000,-0.04000000,-0.05000000,0.03519996,0.06601886,-0.00965695,-23.56000000,-13.49000000,0.02000000
799,0,0.23600000,-0.39100000,0.88900000,-0.21000000,-0.07000000,0.03000000,0.03498825,0.06594829,-0.00962671,-23.56000000,-13.50000000,0.02000000
800,0,0.23300000,-0.39100000,0.88900000,-0.06000000,0.22000000,-0.04000000,0.03492769,0.06617035,-0.00966708,-23.56000000,-13.50000000,0.02000000
801,0,0.23400000,-0.39100000,0.89200000,0.10000000,0.07000000,0.10000000,0.03502796,0.06624053,-0.00956681,-23.56000000,-13.50000000,0.02000000
802,0,0.23900000,-0.38700000,0.89200000,-0.01000000,-0.12000000,0.13000000,0.03501791,0.06611993,-0.00943616,-23.56000000,-13.49000000,0.02000000
803,0,0.23300000,-0.38700000,0.89100000,-0.05000000,-0.01000000,-0.08000000,0.03220054,0.06555646,-0.01394394,-23.56000000,-13.50000000,0.02000000
804,0,0.23300000,-0.39100000,0.88900000,0.02000000,-0.09000000,-0.10000000,0.03222143,0.06546248,-0.01404835,-23.56000000,-13.50000000,0.02000000
805,0,0.23500000,-0.38700000,0.89000000,0.15000000,-0.17000000,-0.05000000,0.03237311,0.06529057,-0.01409891,-23.56000000,-13.50000000,0.02000000
806,0,0.23500000,-0.38500000,0.89000000,-0.22000000,-0.13000000,0.15000000,0.03215221,0.06516004,-0.01394830,-23.56000000,-13.50000000,0.02000000
807,0,0.23200000,-0.38900000,0.89000000,-0.17000000,0.11000000,0.15000000,0.03198233,0.06526997,-0.01379840,-23.56000000,-13.50000000,0.02000000
808,0,0.23100000,-0.38800000,0.89400000,-0.00000000,-0.05000000,-0.23000000,0.03198233,0.06521974,-0.01402945,-23.56000000,-13.50000000,0.02000000
809,0,0.23200000,-0.38900000,0.89300000,-0.25000000,-0.10000000,0.17000000,0.01810980,0.05967073,-0.00459613,-23.56000000,-13.50000000,0.02000000
810,0,0.23400000,-0.39000000,0.89100000,-0.01000000,-0.20000000,0.00000000,0.01809940,0.05946271,-0.00459613,-23.56000000,-13.50000000,0.02000000
811,0,0.22900000,-0.38900000,0.89100000,-0.16000000,-0.01000000,0.06000000,0.01793711,0.05945257,-0.00453527,-23.56000000,-13.50000000,0.02000000
812,0,0.23200000,-0.39100000,0.88700000,-0.24000000,-0.06000000,-0.08000000,0.01768285,0.05938900,-0.00462002,-23.57000000,-13.50000000,0.02000000
813,0,0.23700000,-0.39000000,0.89200000,-0.13000000,-0.15000000,0.04000000,0.01754987,0.05923556,-0.00457911,-23.57000000,-13.50000000,0.02000000
814,0,0.23400000,-0.38900000,0.88700000,-0.05000000,-0.20000000,-0.13000000,0.01749957,0.05903437,-0.00470989,-23.56000000,-13.50000000,0.02000000
815,0,0.23600000,-0.38500000,0.88900000,-0.09000000,-0.01000000,-0.02000000,0.01249832,0.05847867,-0.00582128,-23.57000000,-13.50000000,0.02000000
816,0,0.23700000,-0.39200000,0.89200000,-0.40000000,0.03000000,0.28000000,0.01202611,0.05851409,-0.00549073,-23.57000000,-13.50000000,0.02000000
817,0,0.22800000,-0.39200000,0.89200000,0.25000000,-0.27000000,0.05000000,0.01229102,0.05822799,-0.00543775,-23.57000000,-13.50000000,0.02000000
818,0,0.23600000,-0.38700000,0.89500000,-0.01000000,0.01000000,0.14000000,0.01228050,0.05823851,-0.00529047,-23.57000000,-13.50000000,0.02000000
819,0,0.23500000,-0.38700000,0.89200000,0.04000000,0.14000000,-0.06000000,0.01232228,0.05838472,-0.00535313,-23.57000000,-13.50000000,0.02000000
820,0,0.22800000,-0.38500000,0.89300000,-0.11000000,-0.06000000,-0.04000000,0.01221036,0.05832367,-0.00539383,-23.57000000,-13.50000000,0.02000000
821,0,0.23200000,-0.39000000,0.89600000,-0.18000000,0.07000000,0.15000000,0.00211214,0.06225076,0.00302135,-23.56000000,-13.50000000,0.02000000
