Measurement Count,IMU_MODE,Accel_X,Accel_Y,Accel_Z,Gyro_X,Gyro_Y,Gyro_Z,X_DEL_ANG,Y_DEL_ANG,Z_DEL_ANG,ROLL,PITCH,HEADING
1,0,0.24700000,0.05400000,0.96900000,-0.03000000,-0.49000000,-0.15000000,-0.00911127,-0.14881748,-0.04555637,3.17000000,-14.09000000,-0.01000000
2,0,0.24700000,0.05700000,0.97100000,-0.04000000,0.01000000,-0.27000000,-0.00915332,-0.14880696,-0.04584015,3.33000000,-14.17000000,-0.05000000
3,0,0.24700000,0.05200000,0.96600000,-0.06000000,-0.47000000,-0.00000000,-0.00921485,-0.14928897,-0.04584015,3.24000000,-14.20000000,-0.03000000
4,0,0.24100000,0.05500000,0.97000000,-0.14000000,-0.01000000,0.25000000,-0.00935662,-0.14929910,-0.04558699,3.29000000,-14.17000000,-0.04000000
5,0,0.24400000,0.05600000,0.96500000,-0.07000000,0.01000000,0.09000000,-0.00942722,-0.14928901,-0.04549621,3.31000000,-14.18000000,-0.05000000
6,0,0.24700000,0.05800000,0.97100000,0.02000000,0.16000000,0.23000000,-0.00940658,-0.14912385,-0.04525880,3.32000000,-14.21000000,-0.05000000
7,0,0.24500000,0.06000000,0.97200000,0.09000000,0.10000000,-0.10000000,-0.00929566,-0.14900061,-0.04538205,3.33000000,-14.23000000,-0.05000000
8,0,0.24800000,0.06000000,0.97100000,0.05000000,0.03000000,-0.04000000,-0.00924002,-0.14896722,-0.04542656,3.34000000,-14.22000000,-0.05000000
9,0,0.24800000,0.05500000,0.97000000,0.01000000,-0.12000000,0.18000000,-0.00922940,-0.14909466,-0.04523540,3.34000000,-14.23000000,-0.05000000
10,0,0.25200000,0.05500000,0.96800000,-0.07000000,-0.10000000,0.17000000,-0.00930270,-0.14919939,-0.04505737,3.34000000,-14.23000000,-0.05000000
11,0,0.24600000,0.05600000,0.96800000,0.12000000,-0.25000000,0.16000000,-0.00917374,-0.14946805,-0.04488542,3.34000000,-14.22000000,-0.06000000
12,0,0.24600000,0.05700000,0.97000000,-0.23000000,-0.12000000,0.28000000,-0.00943824,-0.14960605,-0.04456343,3.35000000,-14.21000000,-0.06000000
13,0,0.24100000,0.05900000,0.96800000,0.32000000,-0.16000000,-0.07000000,-0.00905865,-0.14979585,-0.04464646,3.35000000,-14.21000000,-0.05000000
14,0,0.24600000,0.05900000,0.96600000,0.10000000,0.23000000,-0.30000000,-0.00894415,-0.14953250,-0.04498996,3.35000000,-14.21000000,-0.06000000
15,0,0.24600000,0.06200000,0.97000000,0.12000000,0.16000000,-0.12000000,-0.00879333,-0.14933141,-0.04514078,3.36000000,-14.21000000,-0.06000000
16,0,0.24100000,0.05600000,0.97000000,-0.13000000,-0.11000000,0.12000000,-0.00894965,-0.14946368,-0.04499648,3.36000000,-14.20000000,-0.06000000
17,0,0.24600000,0.05900000,0.97000000,-0.03000000,0.17000000,-0.23000000,-0.00902370,-0.14904404,-0.04556423,3.35000000,-14.20000000,-0.06000000
18,0,0.24600000,0.05400000,0.97000000,-0.03000000,0.10000000,-0.05000000,-0.00906747,-0.14889817,-0.04563716,3.36000000,-14.19000000,-0.06000000
19,0,0.24800000,0.05700000,0.96600000,0.17000000,0.15000000,-0.19000000,-0.00886998,-0.14872392,-0.04585788,3.36000000,-14.19000000,-0.06000000
20,0,0.24500000,0.05700000,0.96800000,0.07000000,0.01000000,-0.06000000,-0.00879297,-0.14871292,-0.04592389,3.36000000,-14.20000000,-0.06000000
21,0,0.24200000,0.05400000,0.96800000,0.02000000,-0.32000000,-0.06000000,-0.00876525,-0.14915637,-0.04600704,3.36000000,-14.19000000,-0.06000000
22,0,0.24800000,0.05600000,0.96500000,-0.16000000,-0.01000000,0.11000000,-0.00897523,-0.14916949,-0.04586268,3.36000000,-14.18000000,-0.06000000
23,0,0.24800000,0.05600000,0.97000000,-0.04000000,0.18000000,-0.26000000,-0.00902010,-0.14896760,-0.04615430,3.37000000,-14.18000000,-0.06000000
24,0,0.24900000,0.05800000,0.96600000,0.05000000,0.01000000,-0.06000000,-0.00896483,-0.14895655,-0.04622063,3.37000000,-14.19000000,-0.06000000
25,0,0.24600000,0.05800000,0.97200000,-0.04000000,-0.32000000,0.12000000,-0.00900734,-0.14929670,-0.04609307,3.37000000,-14.19000000,-0.06000000
26,0,0.24800000,0.06200000,0.97500000,-0.22000000,0.10000000,0.22000000,-0.00924361,-0.14918930,-0.04585680,3.37000000,-14.18000000,-0.06000000
27,0,0.24700000,0.05700000,0.97100000,0.08000000,0.26000000,0.12000000,-0.00915407,-0.14889830,-0.04572249,3.37000000,-14.19000000,-0.07000000
28,0,0.24600000,0.05800000,0.96900000,0.02000000,-0.14000000,0.23000000,-0.00913176,-0.14905446,-0.04546595,3.37000000,-14.19000000,-0.06000000
29,0,0.24500000,0.05900000,0.97000000,-0.26000000,-0.08000000,-0.25000000,-0.01276855,-0.15017347,-0.04896286,3.37000000,-14.19000000,-0.06000000
30,0,0.24600000,0.05200000,0.96800000,0.06000000,-0.03000000,0.00000000,-0.01270101,-0.15020724,-0.04896286,3.37000000,-14.19000000,-0.06000000
31,0,0.24500000,0.05900000,0.97100000,0.07000000,0.03000000,-0.00000000,-0.01262014,-0.15017259,-0.04896286,3.37000000,-14.19000000,-0.06000000
32,0,0.24200000,0.05300000,0.97100000,-0.10000000,0.10000000,0.03000000,-0.01273662,-0.15005611,-0.04892791,3.36000000,-14.19000000,-0.06000000
33,0,0.24400000,0.05900000,0.96700000,0.02000000,-0.09000000,0.16000000,-0.01271520,-0.15015248,-0.04875658,3.37000000,-14.19000000,-0.06000000
34,0,0.24600000,0.05800000,0.97200000,-0.02000000,0.16000000,-0.07000000,-0.01273591,-0.14998683,-0.04882905,3.37000000,-14.18000000,-0.06000000
35,0,0.24500000,0.05200000,0.96600000,-0.22000000,-0.05000000,0.03000000,-0.02479813,-0.15272825,-0.04718420,3.37000000,-14.18000000,-0.06000000
36,0,0.25000000,0.05600000,0.97000000,0.02000000,-0.02000000,0.25000000,-0.02477662,-0.15274976,-0.04691530,3.37000000,-14.19000000,-0.06000000
37,0,0.24400000,0.05600000,0.96900000,0.11000000,0.03000000,-0.16000000,-0.02466184,-0.15271846,-0.04708225,3.37000000,-14.19000000,-0.06000000
38,0,0.25000000,0.05700000,0.96400000,-0.16000000,0.26000000,0.09000000,-0.02482818,-0.15244816,-0.04698868,3.37000000,-14.19000000,-0.06000000
39,0,0.24500000,0.05900000,0.97000000,-0.17000000,0.09000000,0.09000000,-0.02499964,-0.15235738,-0.04689791,3.37000000,-14.19000000,-0.06000000
40,0,0.24800000,0.05900000,0.96800000,0.09000000,-0.15000000,-0.05000000,-0.02490923,-0.15250807,-0.04694814,3.38000000,-14.19000000,-0.07000000
41,0,0.24000000,0.05300000,0.96700000,-0.07000000,0.07000000,-0.06000000,-0.02878638,-0.14863092,-0.05027141,3.38000000,-14.19000000,-0.07000000
42,0,0.24800000,0.05200000,0.97000000,0.14000000,-0.04000000,-0.13000000,-0.02863970,-0.14867283,-0.05040761,3.38000000,-14.19000000,-0.07000000
43,0,0.25200000,0.05500000,0.96700000,-0.16000000,0.27000000,0.16000000,-0.02880295,-0.14839735,-0.05024436,3.38000000,-14.20000000,-0.06000000
44,0,0.24600000,0.05800000,0.96800000,0.03000000,-0.14000000,-0.12000000,-0.02877212,-0.14854122,-0.05036769,3.38000000,-14.20000000,-0.06000000
45,0,0.24300000,0.05800000,0.96800000,0.01000000,0.36000000,-0.24000000,-0.02876194,-0.14817486,-0.05061193,3.39000000,-14.20000000,-0.07000000
46,0,0.24300000,0.05900000,0.96900000,0.04000000,0.18000000,-0.08000000,-0.02872090,-0.14799018,-0.05069401,3.39000000,-14.20000000,-0.07000000
47,0,0.24300000,0.05700000,0.96700000,-0.17000000,0.07000000,-0.18000000,-0.03830642,-0.14404320,-0.06084338,3.39000000,-14.20000000,-0.07000000
48,0,0.24300000,0.05900000,0.97200000,-0.05000000,-0.01000000,-0.29000000,-0.03835871,-0.14405366,-0.06114666,3.39000000,-14.20000000,-0.07000000
49,0,0.24600000,0.05600000,0.96800000,-0.08000000,-0.02000000,0.20000000,-0.03844046,-0.14407410,-0.06094227,3.39000000,-14.19000000,-0.07000000
50,0,0.24300000,0.05700000,0.96700000,-0.12000000,0.15000000,-0.12000000,-0.03856075,-0.14392374,-0.06106256,3.39000000,-14.19000000,-0.07000000
51,0,0.24800000,0.05400000,0.96700000,-0.02000000,0.12000000,0.09000000,-0.03858071,-0.14380396,-0.06097273,3.39000000,-14.20000000,-0.07000000
52,0,0.24200000,0.05500000,0.96800000,0.21000000,0.07000000,0.21000000,-0.03837071,-0.14373396,-0.06076272,3.39000000,-14.19000000,-0.07000000
53,0,0.24500000,0.06000000,0.97100000,0.22000000,-0.27000000,-0.00000000,-0.02615381,-0.15872743,-0.06076272,3.39000000,-14.20000000,-0.07000000
54,0,0.24700000,0.05800000,0.96700000,0.20000000,-0.06000000,-0.25000000,-0.02594403,-0.15879036,-0.06102495,3.39000000,-14.20000000,-0.07000000
55,0,0.24500000,0.05300000,0.96900000,0.26000000,-0.29000000,0.07000000,-0.02567850,-0.15908653,-0.06095346,3.39000000,-14.20000000,-0.07000000
56,0,0.24900000,0.05800000,0.97100000,-0.02000000,0.03000000,-0.04000000,-0.02569886,-0.15905600,-0.06099417,3.39000000,-14.20000000,-0.07000000
57,0,0.24800000,0.06000000,0.97000000,0.02000000,0.37000000,-0.10000000,-0.02567878,-0.15868466,-0.06109453,3.39000000,-14.20000000,-0.07000000
58,0,0.24800000,0.05900000,0.97100000,0.20000000,0.16000000,0.00000000,-0.02546681,-0.15851508,-0.06109453,3.39000000,-14.20000000,-0.07000000
59,0,0.24200000,0.06100000,0.97100000,-0.37000000,-0.07000000,0.10000000,-0.04598007,-0.16239597,-0.05555040,3.39000000,-14.20000000,-0.07000000
60,0,0.25300000,0.05900000,0.97000000,0.11000000,0.10000000,0.13000000,-0.04586388,-0.16229034,-0.05541308,3.39000000,-14.20000000,-0.07000000
61,0,0.24600000,0.05500000,0.97000000,-0.13000000,0.33000000,-0.29000000,-0.04599757,-0.16195097,-0.05571132,3.39000000,-14.20000000,-0.07000000
62,0,0.24500000,0.05500000,0.96900000,-0.17000000,-0.13000000,0.04000000,-0.04616863,-0.16208178,-0.05567107,3.39000000,-14.20000000,-0.07000000
63,0,0.24100000,0.05800000,0.96800000,-0.16000000,-0.14000000,0.12000000,-0.04632951,-0.16222255,-0.05555041,3.38000000,-14.20000000,-0.07000000
64,0,0.25300000,0.05500000,0.96600000,-0.07000000,-0.01000000,-0.16000000,-0.04640073,-0.16223272,-0.05571320,3.38000000,-14.20000000,-0.07000000
65,0,0.24500000,0.05400000,0.96800000,-0.02000000,-0.22000000,-0.08000000,-0.04752881,-0.17464165,-0.06022554,3.38000000,-14.21000000,-0.07000000
66,0,0.24100000,0.06300000,0.97000000,-0.12000000,0.18000000,0.09000000,-0.04765877,-0.17444671,-0.06012807,3.38000000,-14.20000000,-0.07000000
67,0,0.24400000,0.05800000,0.97200000,-0.15000000,-0.09000000,-0.01000000,-0.04782022,-0.17454358,-0.06013883,3.38000000,-14.20000000,-0.07000000
68,0,0.24400000,0.05700000,0.97100000,0.01000000,0.03000000,-0.22000000,-0.04781001,-0.17451293,-0.06036361,3.38000000,-14.20000000,-0.07000000
69,0,0.24600000,0.05500000,0.96900000,-0.26000000,0.02000000,0.12000000,-0.04807200,-0.17449277,-0.06024269,3.38000000,-14.20000000,-0.07000000
70,0,0.24800000,0.05600000,0.96900000,0.03000000,-0.04000000,0.13000000,-0.04804127,-0.17453374,-0.06010956,3.38000000,-14.20000000,-0.07000000
71,0,0.24200000,0.05600000,0.96900000,0.07000000,-0.02000000,-0.02000000,-0.04416673,-0.17564075,-0.06121657,3.38000000,-14.19000000,-0.06000000
72,0,0.24500000,0.05100000,0.96400000,-0.04000000,-0.07000000,-0.30000000,-0.04420987,-0.17571624,-0.06154011,3.38000000,-14.19000000,-0.07000000
73,0,0.25000000,0.05900000,0.97000000,0.14000000,0.12000000,-0.00000000,-0.04406489,-0.17559198,-0.06154011,3.38000000,-14.19000000,-0.07000000
74,0,0.24700000,0.05100000,0.96800000,0.06000000,-0.23000000,0.06000000,-0.04400426,-0.17582440,-0.06147948,3.38000000,-14.20000000,-0.07000000
75,0,0.24800000,0.05800000,0.96800000,0.05000000,-0.10000000,0.21000000,-0.04395371,-0.17592550,-0.06126717,3.39000000,-14.20000000,-0.07000000
76,0,0.25400000,0.05900000,0.96400000,-0.26000000,0.07000000,-0.06000000,-0.04421868,-0.17585416,-0.06132832,3.39000000,-14.20000000,-0.07000000
77,0,0.24600000,0.05800000,0.97000000,-0.13000000,-0.10000000,-0.08000000,-0.05143692,-0.18140665,-0.06577031,3.39000000,-14.20000000,-0.07000000
78,0,0.24600000,0.05900000,0.96900000,0.17000000,0.08000000,0.08000000,-0.05125366,-0.18132041,-0.06568407,3.39000000,-14.20000000,-0.07000000
79,0,0.24700000,0.05700000,0.97000000,0.21000000,0.22000000,-0.17000000,-0.05104065,-0.18109726,-0.06585651,3.39000000,-14.20000000,-0.07000000
80,0,0.24500000,0.05500000,0.97300000,-0.22000000,-0.23000000,0.12000000,-0.05126280,-0.18132951,-0.06573533,3.39000000,-14.20000000,-0.07000000
81,0,0.25000000,0.05800000,0.96600000,0.25000000,0.03000000,0.18000000,-0.05101149,-0.18129936,-0.06555438,3.39000000,-14.20000000,-0.07000000
82,0,0.24800000,0.06000000,0.96800000,-0.04000000,0.16000000,-0.14000000,-0.05105215,-0.18113668,-0.06569672,3.39000000,-14.20000000,-0.07000000
83,0,0.24100000,0.05600000,0.97200000,-0.10000000,0.11000000,-0.06000000,-0.05668411,-0.17494153,-0.06907590,3.39000000,-14.19000000,-0.07000000
84,0,0.24300000,0.05800000,0.96700000,0.03000000,-0.19000000,-0.06000000,-0.05665224,-0.17514340,-0.06913965,3.39000000,-14.19000000,-0.07000000
85,0,0.24600000,0.06200000,0.96900000,0.06000000,-0.07000000,0.04000000,-0.05659126,-0.17521454,-0.06909900,3.39000000,-14.19000000,-0.07000000
86,0,0.24500000,0.06000000,0.96600000,0.06000000,-0.09000000,-0.08000000,-0.05653069,-0.17530540,-0.06917976,3.39000000,-14.19000000,-0.07000000
87,0,0.24400000,0.05600000,0.97000000,0.20000000,0.11000000,-0.12000000,-0.05632630,-0.17519298,-0.06930240,3.39000000,-14.20000000,-0.07000000
88,0,0.24700000,0.06100000,0.96800000,0.06000000,-0.25000000,-0.05000000,-0.05626237,-0.17545932,-0.06935567,3.39000000,-14.19000000,-0.07000000
89,0,0.24700000,0.06000000,0.96700000,0.02000000,0.11000000,0.14000000,-0.05515391,-0.16936278,-0.06159643,3.39000000,-14.19000000,-0.07000000
90,0,0.24400000,0.05500000,0.97200000,0.04000000,-0.01000000,0.21000000,-0.05511022,-0.16937370,-0.06136705,3.39000000,-14.19000000,-0.07000000
91,0,0.24800000,0.05800000,0.96600000,0.09000000,0.28000000,0.31000000,-0.05499490,-0.16901492,-0.06096982,3.39000000,-14.19000000,-0.07000000
92,0,0.24300000,0.05600000,0.97200000,-0.06000000,0.01000000,-0.05000000,-0.05506617,-0.16900304,-0.06102922,3.39000000,-14.19000000,-0.07000000
93,0,0.24600000,0.05700000,0.97000000,-0.10000000,0.13000000,0.02000000,-0.05518687,-0.16884613,-0.06100508,3.39000000,-14.19000000,-0.07000000
94,0,0.24700000,0.05400000,0.96900000,0.09000000,-0.01000000,-0.06000000,-0.05507425,-0.16885865,-0.06108016,3.39000000,-14.20000000,-0.07000000
95,0,0.24200000,0.05500000,0.96800000,0.02000000,0.03000000,0.27000000,-0.05398032,-0.16721775,-0.04631206,3.39000000,-14.20000000,-0.07000000
96,0,0.24400000,0.06100000,0.96500000,0.04000000,0.12000000,0.02000000,-0.05393619,-0.16708536,-0.04628999,3.39000000,-14.20000000,-0.07000000
97,0,0.24300000,0.06000000,0.97200000,-0.10000000,-0.06000000,-0.19000000,-0.05404072,-0.16714808,-0.04648861,3.39000000,-14.19000000,-0.07000000
98,0,0.24500000,0.05300000,0.96700000,-0.15000000,0.09000000,-0.02000000,-0.05419416,-0.16705601,-0.04650906,3.39000000,-14.19000000,-0.07000000
99,0,0.24900000,0.05400000,0.96900000,0.04000000,-0.17000000,0.00000000,-0.05415282,-0.16723169,-0.04650906,3.39000000,-14.19000000,-0.07000000
100,0,0.24600000,0.06100000,0.96700000,0.00000000,-0.05000000,-0.02000000,-0.05415282,-0.16728252,-0.04652939,3.39000000,-14.19000000,-0.07000000
101,0,0.24300000,0.06100000,0.96600000,0.13000000,0.26000000,0.19000000,-0.04685511,-0.15268710,-0.03586351,3.39000000,-14.19000000,-0.07000000
102,0,0.24800000,0.06000000,0.96800000,0.02000000,0.11000000,-0.16000000,-0.04683365,-0.15256907,-0.03603519,3.39000000,-14.20000000,-0.07000000
103,0,0.24700000,0.05700000,0.96400000,-0.04000000,-0.09000000,0.01000000,-0.04687554,-0.15266332,-0.03602472,3.39000000,-14.20000000,-0.07000000
104,0,0.24700000,0.05600000,0.96800000,0.13000000,0.03000000,0.10000000,-0.04673686,-0.15263131,-0.03591804,3.39000000,-14.20000000,-0.07000000
105,0,0.24600000,0.06100000,0.96700000,-0.07000000,0.04000000,-0.06000000,-0.04680853,-0.15259036,-0.03597947,3.39000000,-14.20000000,-0.07000000
106,0,0.24500000,0.05300000,0.96700000,-0.02000000,0.27000000,-0.17000000,-0.04682912,-0.15231243,-0.03615446,3.39000000,-14.20000000,-0.07000000
107,0,0.24800000,0.05800000,0.96400000,-0.04000000,-0.10000000,-0.04000000,-0.04904225,-0.15784528,-0.03836760,3.39000000,-14.20000000,-0.07000000
108,0,0.24600000,0.05500000,0.96800000,0.00000000,0.03000000,0.16000000,-0.04904225,-0.15781343,-0.03819771,3.39000000,-14.20000000,-0.07000000
109,0,0.24200000,0.05900000,0.96500000,-0.04000000,0.08000000,-0.09000000,-0.04908291,-0.15773211,-0.03828920,3.39000000,-14.20000000,-0.07000000
110,0,0.24600000,0.05600000,0.96500000,0.11000000,0.14000000,-0.34000000,-0.04897055,-0.15758910,-0.03863650,3.39000000,-14.20000000,-0.07000000
111,0,0.24700000,0.05700000,0.97000000,0.15000000,-0.05000000,0.30000000,-0.04881976,-0.15763936,-0.03833492,3.39000000,-14.20000000,-0.07000000
112,0,0.24500000,0.05200000,0.96800000,0.04000000,-0.25000000,-0.18000000,-0.04877935,-0.15789193,-0.03851677,3.39000000,-14.20000000,-0.07000000
113,0,0.24500000,0.05500000,0.96700000,0.06000000,-0.12000000,0.07000000,-0.04544074,-0.16456915,-0.03462173,3.39000000,-14.20000000,-0.07000000
114,0,0.24800000,0.05600000,0.97100000,-0.12000000,-0.06000000,-0.16000000,-0.04558961,-0.16464358,-0.03482023,3.39000000,-14.20000000,-0.07000000
115,0,0.24800000,0.06200000,0.96300000,0.07000000,-0.09000000,0.07000000,-0.04550573,-0.16475144,-0.03473634,3.39000000,-14.20000000,-0.07000000
116,0,0.24300000,0.05700000,0.96700000,-0.07000000,0.01000000,-0.00000000,-0.04559125,-0.16473922,-0.03473634,3.39000000,-14.20000000,-0.07000000
117,0,0.24700000,0.05700000,0.97000000,-0.15000000,-0.13000000,0.13000000,-0.04576815,-0.16489253,-0.03458303,3.39000000,-14.20000000,-0.07000000
118,0,0.24600000,0.05900000,0.96700000,0.18000000,0.02000000,-0.15000000,-0.04550742,-0.16486356,-0.03480030,3.39000000,-14.20000000,-0.07000000
119,0,0.24200000,0.06000000,0.96700000,0.11000000,-0.26000000,0.11000000,-0.03943760,-0.17921041,-0.02873048,3.39000000,-14.20000000,-0.07000000
120,0,0.24500000,0.05700000,0.96500000,0.01000000,-0.04000000,0.14000000,-0.03942484,-0.17926146,-0.02855179,3.39000000,-14.20000000,-0.07000000
121,0,0.25200000,0.05300000,0.96300000,-0.27000000,0.13000000,-0.07000000,-0.03973199,-0.17911357,-0.02863142,3.39000000,-14.20000000,-0.07000000
122,0,0.25100000,0.05300000,0.96500000,0.02000000,-0.06000000,-0.26000000,-0.03971161,-0.17917469,-0.02889627,3.39000000,-14.20000000,-0.07000000
123,0,0.24400000,0.05600000,0.96800000,0.03000000,0.05000000,-0.01000000,-0.03968109,-0.17912382,-0.02890644,3.38000000,-14.21000000,-0.07000000
124,0,0.24900000,0.05900000,0.96500000,-0.12000000,-0.04000000,-0.12000000,-0.03980387,-0.17916475,-0.02902922,3.38000000,-14.21000000,-0.07000000
125,0,0.24300000,0.05500000,0.96500000,-0.06000000,0.14000000,-0.04000000,-0.04310252,-0.17146789,-0.03122832,3.39000000,-14.21000000,-0.07000000
126,0,0.25000000,0.06100000,0.97100000,-0.04000000,-0.07000000,0.11000000,-0.04314502,-0.17154227,-0.03111145,3.38000000,-14.21000000,-0.07000000
127,0,0.24900000,0.05700000,0.97100000,0.21000000,-0.01000000,0.05000000,-0.04292946,-0.17155253,-0.03106012,3.38000000,-14.21000000,-0.07000000
128,0,0.24100000,0.05700000,0.96700000,-0.21000000,-0.27000000,-0.10000000,-0.04314147,-0.17182512,-0.03116108,3.38000000,-14.21000000,-0.07000000
129,0,0.24400000,0.05800000,0.96500000,-0.10000000,-0.01000000,-0.04000000,-0.04324190,-0.17183516,-0.03120125,3.38000000,-14.21000000,-0.07000000
130,0,0.24500000,0.05800000,0.97100000,0.07000000,-0.13000000,0.23000000,-0.04317076,-0.17196727,-0.03096752,3.38000000,-14.21000000,-0.07000000
131,0,0.24000000,0.05700000,0.96800000,0.06000000,-0.18000000,0.16000000,-0.03983404,-0.18197742,-0.02206960,3.38000000,-14.21000000,-0.07000000
132,0,0.24200000,0.05600000,0.96600000,-0.02000000,0.09000000,0.04000000,-0.03985541,-0.18188126,-0.02202686,3.38000000,-14.21000000,-0.07000000
133,0,0.24600000,0.05900000,0.97100000,0.12000000,0.07000000,0.00000000,-0.03973097,-0.18180867,-0.02202686,3.38000000,-14.21000000,-0.07000000
134,0,0.24400000,0.05700000,0.96800000,0.12000000,-0.22000000,-0.06000000,-0.03961031,-0.18202988,-0.02208720,3.38000000,-14.21000000,-0.07000000
135,0,0.24600000,0.05900000,0.97100000,-0.12000000,0.12000000,0.09000000,-0.03973080,-0.18190939,-0.02199683,3.38000000,-14.21000000,-0.07000000
136,0,0.24700000,0.05900000,0.97000000,0.06000000,-0.04000000,-0.11000000,-0.03967019,-0.18194981,-0.02210796,3.38000000,-14.21000000,-0.07000000
137,0,0.24700000,0.06000000,0.96600000,-0.04000000,-0.05000000,-0.06000000,-0.04192057,-0.18476278,-0.02548353,3.38000000,-14.21000000,-0.07000000
138,0,0.24800000,0.05800000,0.96700000,-0.01000000,0.08000000,0.04000000,-0.04193129,-0.18467700,-0.02544064,3.38000000,-14.21000000,-0.07000000
139,0,0.24500000,0.05800000,0.96700000,-0.19000000,0.25000000,0.10000000,-0.04212496,-0.18442216,-0.02533870,3.38000000,-14.21000000,-0.07000000
140,0,0.24300000,0.05900000,0.97100000,0.14000000,0.09000000,-0.17000000,-0.04198389,-0.18433147,-0.02551001,3.38000000,-14.21000000,-0.07000000
141,0,0.24400000,0.05600000,0.96600000,0.06000000,0.25000000,-0.02000000,-0.04191582,-0.18404785,-0.02553270,3.38000000,-14.21000000,-0.07000000
142,0,0.24200000,0.05900000,0.96900000,0.21000000,-0.05000000,-0.08000000,-0.04170386,-0.18409832,-0.02561344,3.38000000,-14.20000000,-0.07000000
143,0,0.24300000,0.05500000,0.97100000,-0.04000000,0.03000000,0.07000000,-0.04403662,-0.18234875,-0.02153112,3.38000000,-14.20000000,-0.07000000
144,0,0.24200000,0.05800000,0.96900000,0.08000000,0.13000000,-0.18000000,-0.04395149,-0.18221041,-0.02172266,3.38000000,-14.20000000,-0.07000000
145,0,0.25100000,0.05600000,0.96600000,-0.07000000,-0.02000000,0.24000000,-0.04402334,-0.18223094,-0.02147631,3.38000000,-14.20000000,-0.07000000
146,0,0.24100000,0.06000000,0.97100000,-0.26000000,0.08000000,0.07000000,-0.04428713,-0.18214977,-0.02140529,3.38000000,-14.20000000,-0.07000000
147,0,0.24300000,0.05700000,0.96700000,-0.07000000,0.07000000,0.04000000,-0.04435792,-0.18207898,-0.02136484,3.38000000,-14.20000000,-0.07000000
148,0,0.24600000,0.06300000,0.96900000,-0.10000000,-0.06000000,-0.08000000,-0.04445880,-0.18213951,-0.02144554,3.38000000,-14.20000000,-0.07000000
149,0,0.24000000,0.05500000,0.97000000,0.04000000,-0.03000000,-0.03000000,-0.04441841,-0.18216981,-0.02147584,3.38000000,-14.20000000,-0.07000000
150,0,0.24500000,0.05700000,0.96700000,-0.05000000,-0.09000000,-0.08000000,-0.04719522,-0.18716806,-0.02591873,3.38000000,-14.20000000,-0.07000000
151,0,0.24800000,0.05600000,0.96300000,0.20000000,-0.20000000,-0.22000000,-0.04698124,-0.18738204,-0.02615410,3.38000000,-14.20000000,-0.07000000
152,0,0.24400000,0.05900000,0.96600000,0.10000000,0.07000000,0.11000000,-0.04688016,-0.18731128,-0.02604292,3.38000000,-14.20000000,-0.07000000
153,0,0.25100000,0.05800000,0.96500000,0.17000000,0.05000000,0.09000000,-0.04670878,-0.18726088,-0.02595219,3.38000000,-14.20000000,-0.07000000
154,0,0.24300000,0.05800000,0.96800000,-0.12000000,0.01000000,-0.05000000,-0.04682933,-0.18725083,-0.02600242,3.38000000,-14.20000000,-0.07000000
155,0,0.24300000,0.05900000,0.97100000,0.27000000,0.05000000,0.06000000,-0.04655617,-0.18720025,-0.02594171,3.38000000,-14.20000000,-0.07000000
156,0,0.24600000,0.06200000,0.96600000,0.08000000,0.33000000,-0.22000000,-0.04204926,-0.16860928,-0.03833569,3.38000000,-14.21000000,-0.07000000
157,0,0.24800000,0.05900000,0.96300000,-0.18000000,0.20000000,0.18000000,-0.04223983,-0.16839754,-0.03814513,3.38000000,-14.20000000,-0.07000000
158,0,0.24600000,0.05700000,0.97000000,0.08000000,0.35000000,0.06000000,-0.04215811,-0.16804002,-0.03808384,3.38000000,-14.20000000,-0.07000000
159,0,0.24800000,0.06000000,0.96900000,0.04000000,-0.08000000,-0.06000000,-0.04211790,-0.16812044,-0.03814416,3.38000000,-14.20000000,-0.07000000
160,0,0.24500000,0.05600000,0.96800000,-0.16000000,0.03000000,-0.06000000,-0.04227916,-0.16809021,-0.03820463,3.38000000,-14.20000000,-0.07000000
161,0,0.24200000,0.05200000,0.96800000,0.15000000,0.01000000,0.03000000,-0.04212619,-0.16808001,-0.03817404,3.38000000,-14.20000000,-0.07000000
162,0,0.24500000,0.05500000,0.97200000,0.01000000,-0.05000000,-0.02000000,-0.04157155,-0.17085320,-0.03928331,3.38000000,-14.20000000,-0.07000000
163,0,0.24200000,0.06100000,0.97200000,-0.04000000,0.24000000,-0.01000000,-0.04161391,-0.17059906,-0.03929390,3.38000000,-14.20000000,-0.07000000
164,0,0.24400000,0.06000000,0.96900000,0.02000000,0.08000000,-0.03000000,-0.04159362,-0.17051792,-0.03932433,3.38000000,-14.20000000,-0.07000000
165,0,0.24300000,0.05700000,0.96800000,0.19000000,0.09000000,0.11000000,-0.04140216,-0.17042723,-0.03921349,3.39000000,-14.20000000,-0.07000000
166,0,0.24900000,0.05900000,0.97200000,0.10000000,-0.09000000,0.06000000,-0.04130140,-0.17051792,-0.03915303,3.39000000,-14.20000000,-0.07000000
167,0,0.24900000,0.05900000,0.96700000,-0.27000000,-0.20000000,0.17000000,-0.04157611,-0.17072140,-0.03898007,3.39000000,-14.20000000,-0.07000000
168,0,0.24800000,0.05700000,0.96800000,-0.13000000,-0.08000000,-0.12000000,-0.04881338,-0.17517511,-0.04566063,3.39000000,-14.20000000,-0.07000000
169,0,0.25200000,0.05700000,0.96500000,0.08000000,-0.12000000,0.04000000,-0.04872296,-0.17531073,-0.04561542,3.39000000,-14.20000000,-0.07000000
170,0,0.24800000,0.05800000,0.96900000,0.25000000,0.23000000,-0.11000000,-0.04846550,-0.17507387,-0.04572870,3.39000000,-14.20000000,-0.07000000
171,0,0.24900000,0.05800000,0.96500000,0.09000000,-0.20000000,-0.00000000,-0.04837346,-0.17527841,-0.04572870,3.39000000,-14.20000000,-0.07000000
172,0,0.24600000,0.05200000,0.96500000,-0.07000000,0.17000000,-0.24000000,-0.04844398,-0.17510715,-0.04597048,3.39000000,-14.20000000,-0.07000000
173,0,0.24400000,0.05600000,0.96900000,-0.09000000,0.12000000,-0.14000000,-0.04854765,-0.17496892,-0.04613175,3.39000000,-14.20000000,-0.07000000
174,0,0.25000000,0.05300000,0.96800000,-0.03000000,-0.07000000,-0.01000000,-0.05023394,-0.17890359,-0.04669384,3.39000000,-14.20000000,-0.07000000
175,0,0.24300000,0.05400000,0.96500000,-0.16000000,-0.25000000,-0.31000000,-0.05044373,-0.17923139,-0.04710031,3.39000000,-14.20000000,-0.08000000
176,0,0.24200000,0.05800000,0.97000000,0.06000000,0.19000000,-0.03000000,-0.05036878,-0.17899404,-0.04713778,3.39000000,-14.19000000,-0.08000000
177,0,0.24600000,0.05400000,0.96400000,0.01000000,0.06000000,0.18000000,-0.05035618,-0.17891848,-0.04691108,3.39000000,-14.20000000,-0.07000000
178,0,0.25200000,0.05700000,0.96500000,-0.10000000,-0.05000000,-0.09000000,-0.05050106,-0.17899091,-0.04704147,3.39000000,-14.20000000,-0.07000000
179,0,0.24400000,0.05700000,0.97200000,-0.04000000,-0.06000000,0.19000000,-0.05055684,-0.17907459,-0.04677649,3.38000000,-14.20000000,-0.07000000
180,0,0.24600000,0.05600000,0.97000000,-0.04000000,0.14000000,-0.09000000,-0.05271395,-0.17152470,-0.05162999,3.38000000,-14.20000000,-0.07000000
181,0,0.24700000,0.05500000,0.96700000,-0.06000000,0.31000000,0.15000000,-0.05280063,-0.17107685,-0.05141329,3.38000000,-14.20000000,-0.07000000
182,0,0.24200000,0.05600000,0.97100000,-0.23000000,0.07000000,0.02000000,-0.05312649,-0.17097768,-0.05138495,3.38000000,-14.19000000,-0.07000000
183,0,0.24900000,0.06200000,0.96600000,0.08000000,-0.00000000,-0.07000000,-0.05301183,-0.17097768,-0.05148528,3.38000000,-14.19000000,-0.07000000
184,0,0.24700000,0.05900000,0.96900000,-0.06000000,-0.01000000,0.03000000,-0.05309522,-0.17099158,-0.05144358,3.38000000,-14.20000000,-0.07000000
185,0,0.24700000,0.05700000,0.96800000,0.02000000,0.47000000,0.21000000,-0.05306699,-0.17032815,-0.05114716,3.38000000,-14.20000000,-0.07000000
186,0,0.24600000,0.05300000,0.96800000,-0.31000000,0.17000000,-0.09000000,-0.06973212,-0.16118921,-0.05598542,3.38000000,-14.20000000,-0.07000000
187,0,0.24200000,0.05700000,0.96900000,-0.02000000,0.02000000,0.15000000,-0.06976234,-0.16115899,-0.05575878,3.38000000,-14.20000000,-0.07000000
188,0,0.24600000,0.05600000,0.96900000,-0.06000000,-0.24000000,-0.24000000,-0.06984675,-0.16149661,-0.05609641,3.38000000,-14.20000000,-0.07000000
189,0,0.24800000,0.05600000,0.96900000,0.01000000,0.14000000,-0.34000000,-0.06983298,-0.16130387,-0.05656449,3.38000000,-14.20000000,-0.07000000
190,0,0.24800000,0.05800000,0.96700000,-0.10000000,-0.14000000,0.01000000,-0.06997185,-0.16149828,-0.05655061,3.38000000,-14.20000000,-0.07000000
191,0,0.24800000,0.06000000,0.97000000,0.38000000,-0.09000000,-0.12000000,-0.06939062,-0.16163594,-0.05673416,3.38000000,-14.20000000,-0.07000000
192,0,0.24400000,0.05200000,0.96300000,0.24000000,0.02000000,0.08000000,-0.05643617,-0.16055641,-0.05241601,3.38000000,-14.20000000,-0.07000000
193,0,0.24800000,0.05700000,0.96800000,0.12000000,-0.11000000,-0.18000000,-0.05627159,-0.16070727,-0.05266287,3.38000000,-14.20000000,-0.07000000
194,0,0.24300000,0.05200000,0.97200000,0.06000000,-0.08000000,0.04000000,-0.05619033,-0.16081562,-0.05260870,3.38000000,-14.20000000,-0.07000000
195,0,0.24500000,0.05800000,0.96600000,0.13000000,-0.19000000,-0.06000000,-0.05601755,-0.16106813,-0.05268844,3.39000000,-14.20000000,-0.07000000
196,0,0.24600000,0.05900000,0.96800000,0.14000000,-0.15000000,0.02000000,-0.05583542,-0.16126327,-0.05266242,3.39000000,-14.20000000,-0.07000000
197,0,0.24700000,0.05800000,0.96800000,0.09000000,-0.07000000,-0.11000000,-0.05571253,-0.16135886,-0.05281263,3.39000000,-14.20000000,-0.07000000
198,0,0.25100000,0.05500000,0.96500000,-0.03000000,-0.15000000,-0.03000000,-0.05732644,-0.16942842,-0.05442655,3.39000000,-14.20000000,-0.07000000
199,0,0.24500000,0.05800000,0.97000000,0.05000000,-0.28000000,-0.24000000,-0.05725833,-0.16980984,-0.05475347,3.39000000,-14.20000000,-0.07000000
200,0,0.23900000,0.06000000,0.96500000,-0.06000000,-0.09000000,-0.14000000,-0.05733866,-0.16993033,-0.05494091,3.39000000,-14.20000000,-0.08000000
201,0,0.24400000,0.05700000,0.97000000,-0.19000000,-0.06000000,0.17000000,-0.05759408,-0.17001099,-0.05471237,3.38000000,-14.20000000,-0.07000000
202,0,0.24600000,0.05800000,0.96300000,-0.15000000,0.10000000,-0.17000000,-0.05779376,-0.16987787,-0.05493868,3.39000000,-14.20000000,-0.08000000
203,0,0.24500000,0.05700000,0.96600000,0.14000000,-0.07000000,-0.09000000,-0.05757208,-0.16998871,-0.05508119,3.39000000,-14.20000000,-0.08000000
204,0,0.24100000,0.05400000,0.96500000,-0.09000000,-0.14000000,-0.16000000,-0.06242343,-0.17753526,-0.06370581,3.39000000,-14.20000000,-0.08000000
205,0,0.25300000,0.05800000,0.97000000,0.05000000,0.07000000,-0.07000000,-0.06234672,-0.17742787,-0.06381320,3.39000000,-14.20000000,-0.08000000
206,0,0.24500000,0.05800000,0.96500000,0.21000000,-0.07000000,0.09000000,-0.06203338,-0.17753232,-0.06367891,3.39000000,-14.20000000,-0.08000000
207,0,0.24200000,0.05600000,0.96400000,-0.06000000,-0.02000000,0.12000000,-0.06212270,-0.17756210,-0.06350025,3.39000000,-14.20000000,-0.08000000
208,0,0.24800000,0.05700000,0.96900000,-0.15000000,-0.05000000,0.04000000,-0.06234309,-0.17763556,-0.06344148,3.39000000,-14.20000000,-0.08000000
209,0,0.24900000,0.05800000,0.96400000,-0.03000000,0.14000000,0.00000000,-0.06238948,-0.17741905,-0.06344148,3.39000000,-14.20000000,-0.08000000
210,0,0.24500000,0.06000000,0.96700000,-0.26000000,-0.20000000,0.07000000,-0.07637890,-0.18818014,-0.05967510,3.39000000,-14.20000000,-0.08000000
211,0,0.23800000,0.06400000,0.96900000,0.06000000,0.32000000,0.08000000,-0.07628978,-0.18770480,-0.05955627,3.39000000,-14.20000000,-0.08000000
212,0,0.24400000,0.05200000,0.97000000,-0.15000000,-0.15000000,-0.03000000,-0.07650004,-0.18791506,-0.05959832,3.39000000,-14.20000000,-0.08000000
213,0,0.24700000,0.06000000,0.96700000,-0.34000000,0.02000000,0.05000000,-0.07697713,-0.18788700,-0.05952816,3.39000000,-14.20000000,-0.08000000
214,0,0.24600000,0.05600000,0.96200000,-0.19000000,-0.16000000,-0.09000000,-0.07724306,-0.18811094,-0.05965413,3.39000000,-14.20000000,-0.08000000
215,0,0.24300000,0.05900000,0.97000000,-0.13000000,-0.16000000,-0.12000000,-0.07743099,-0.18834224,-0.05982760,3.39000000,-14.20000000,-0.08000000
216,0,0.24900000,0.05800000,0.97000000,-0.20000000,-0.21000000,-0.01000000,-0.08809580,-0.19954030,-0.06036084,3.39000000,-14.20000000,-0.08000000
217,0,0.24300000,0.05800000,0.96800000,-0.02000000,0.03000000,-0.14000000,-0.08812448,-0.19949729,-0.06056156,3.39000000,-14.20000000,-0.08000000
218,0,0.24700000,0.05000000,0.97000000,-0.15000000,-0.06000000,0.12000000,-0.08833145,-0.19958008,-0.06039598,3.39000000,-14.20000000,-0.08000000
219,0,0.24100000,0.05700000,0.97300000,0.11000000,0.18000000,0.18000000,-0.08817792,-0.19932883,-0.06014474,3.39000000,-14.20000000,-0.08000000
220,0,0.24400000,0.05700000,0.96700000,0.14000000,-0.01000000,0.25000000,-0.08798180,-0.19934284,-0.05979453,3.39000000,-14.20000000,-0.08000000
221,0,0.24700000,0.05600000,0.97200000,-0.05000000,0.20000000,0.13000000,-0.08805578,-0.19904694,-0.05960220,3.39000000,-14.20000000,-0.08000000
222,0,0.24700000,0.05800000,0.96700000,-0.07000000,-0.16000000,-0.03000000,-0.09187016,-0.20776553,-0.06123694,3.39000000,-14.20000000,-0.08000000
223,0,0.24800000,0.05200000,0.97000000,-0.17000000,0.16000000,-0.17000000,-0.09211725,-0.20753297,-0.06148403,3.39000000,-14.20000000,-0.08000000
224,0,0.24000000,0.05800000,0.97000000,0.04000000,0.18000000,-0.01000000,-0.09206195,-0.20728412,-0.06149786,3.39000000,-14.20000000,-0.08000000
225,0,0.25100000,0.05900000,0.96700000,-0.37000000,0.02000000,-0.21000000,-0.09258070,-0.20725608,-0.06179228,3.39000000,-14.20000000,-0.08000000
226,0,0.24200000,0.05900000,0.96700000,-0.15000000,0.02000000,0.07000000,-0.09279071,-0.20722808,-0.06169427,3.39000000,-14.20000000,-0.08000000
227,0,0.24500000,0.05500000,0.96700000,0.12000000,-0.04000000,-0.05000000,-0.09262193,-0.20728434,-0.06176460,3.39000000,-14.20000000,-0.08000000
228,0,0.24300000,0.05700000,0.97300000,0.04000000,0.02000000,0.09000000,-0.09048071,-0.20621374,-0.05694687,3.39000000,-14.20000000,-0.08000000
229,0,0.24600000,0.05500000,0.96700000,-0.14000000,-0.01000000,0.07000000,-0.09073617,-0.20623198,-0.05681914,3.39000000,-14.20000000,-0.08000000
230,0,0.24900000,0.06100000,0.96800000,-0.15000000,0.08000000,0.02000000,-0.09097995,-0.20610197,-0.05678663,3.39000000,-14.20000000,-0.08000000
231,0,0.24700000,0.05900000,0.96800000,0.04000000,-0.07000000,0.02000000,-0.09091939,-0.20620796,-0.05675635,3.39000000,-14.20000000,-0.08000000
232,0,0.24600000,0.05700000,0.96500000,0.05000000,0.13000000,-0.07000000,-0.09083648,-0.20599241,-0.05687242,3.39000000,-14.20000000,-0.08000000
233,0,0.24300000,0.05800000,0.96600000,0.09000000,0.17000000,0.07000000,-0.09070035,-0.20573526,-0.05676653,3.39000000,-14.20000000,-0.08000000
234,0,0.24500000,0.05400000,0.97000000,-0.04000000,0.01000000,-0.13000000,-0.09279455,-0.20521171,-0.06357270,3.39000000,-14.20000000,-0.08000000
235,0,0.24700000,0.05800000,0.96800000,-0.04000000,-0.07000000,-0.12000000,-0.09285212,-0.20531245,-0.06374541,3.39000000,-14.20000000,-0.08000000
236,0,0.24300000,0.06000000,0.96400000,0.02000000,0.06000000,0.00000000,-0.09282402,-0.20522816,-0.06374541,3.39000000,-14.20000000,-0.08000000
237,0,0.24700000,0.05700000,0.97000000,-0.09000000,0.08000000,0.07000000,-0.09294975,-0.20511640,-0.06364762,3.39000000,-14.20000000,-0.08000000
238,0,0.24300000,0.05900000,0.97300000,-0.33000000,0.11000000,-0.03000000,-0.09341910,-0.20495995,-0.06369028,3.39000000,-14.20000000,-0.08000000
239,0,0.24800000,0.05400000,0.96800000,-0.09000000,-0.00000000,0.03000000,-0.09354981,-0.20495995,-0.06364672,3.39000000,-14.20000000,-0.08000000
240,0,0.24300000,0.05600000,0.96900000,-0.35000000,0.22000000,0.11000000,-0.11264816,-0.19295527,-0.05764438,3.39000000,-14.20000000,-0.08000000
241,0,0.24800000,0.06100000,0.96500000,0.31000000,0.28000000,-0.06000000,-0.11219388,-0.19254495,-0.05773230,3.39000000,-14.20000000,-0.08000000
242,0,0.24500000,0.05700000,0.96600000,-0.04000000,0.05000000,-0.15000000,-0.11224893,-0.19247614,-0.05793874,3.39000000,-14.20000000,-0.08000000
243,0,0.24400000,0.05600000,0.96800000,-0.03000000,0.06000000,0.02000000,-0.11229179,-0.19239042,-0.05791017,3.39000000,-14.20000000,-0.08000000
244,0,0.24700000,0.05400000,0.96700000,-0.12000000,-0.15000000,-0.07000000,-0.11246799,-0.19261066,-0.05801295,3.39000000,-14.20000000,-0.08000000
245,0,0.24600000,0.05500000,0.96600000,0.29000000,-0.26000000,0.07000000,-0.11204903,-0.19298628,-0.05791182,3.39000000,-14.20000000,-0.08000000
246,0,0.24200000,0.05500000,0.96800000,0.23000000,0.02000000,0.11000000,-0.09979019,-0.19192029,-0.05204890,3.39000000,-14.20000000,-0.08000000
247,0,0.24100000,0.05700000,0.96900000,-0.05000000,-0.20000000,-0.03000000,-0.09986221,-0.19220837,-0.05209211,3.39000000,-14.20000000,-0.08000000
248,0,0.24100000,0.06200000,0.96500000,-0.18000000,0.17000000,-0.35000000,-0.10009097,-0.19199232,-0.05253691,3.39000000,-14.20000000,-0.08000000
249,0,0.24300000,0.05600000,0.96600000,0.02000000,0.17000000,-0.01000000,-0.10006514,-0.19177279,-0.05254983,3.39000000,-14.20000000,-0.08000000
250,0,0.24200000,0.05900000,0.96900000,0.10000000,0.07000000,0.29000000,-0.09993162,-0.19167932,-0.05216261,3.39000000,-14.20000000,-0.08000000
251,0,0.24800000,0.05600000,0.97000000,0.16000000,0.08000000,-0.03000000,-0.09967747,-0.19155224,-0.05221026,3.39000000,-14.20000000,-0.08000000
252,0,0.24600000,0.05500000,0.96900000,0.13000000,0.05000000,-0.03000000,-0.09271019,-0.18887252,-0.05381809,3.39000000,-14.20000000,-0.08000000
253,0,0.24600000,0.05800000,0.97000000,-0.01000000,-0.04000000,-0.12000000,-0.09272597,-0.18893565,-0.05400748,3.39000000,-14.20000000,-0.08000000
254,0,0.24400000,0.05800000,0.96900000,-0.09000000,-0.11000000,-0.04000000,-0.09286423,-0.18910463,-0.05406893,3.39000000,-14.20000000,-0.08000000
255,0,0.24400000,0.05800000,0.96900000,0.10000000,0.05000000,-0.19000000,-0.09270474,-0.18902489,-0.05437195,3.39000000,-14.20000000,-0.08000000
256,0,0.24200000,0.06100000,0.96900000,0.15000000,0.11000000,0.11000000,-0.09237928,-0.18878622,-0.05413328,3.39000000,-14.20000000,-0.08000000
257,0,0.24500000,0.05800000,0.97200000,0.15000000,-0.00000000,-0.00000000,-0.09212929,-0.18878622,-0.05413328,3.39000000,-14.19000000,-0.08000000
258,0,0.24200000,0.05400000,0.96900000,0.01000000,0.11000000,0.11000000,-0.09159867,-0.18294942,-0.04829648,3.39000000,-14.19000000,-0.08000000
259,0,0.24400000,0.06000000,0.96900000,-0.03000000,0.26000000,-0.18000000,-0.09164349,-0.18256097,-0.04856541,3.39000000,-14.19000000,-0.08000000
260,0,0.24700000,0.05700000,0.96900000,0.37000000,0.03000000,0.17000000,-0.09113419,-0.18251968,-0.04833141,3.39000000,-14.19000000,-0.08000000
261,0,0.23900000,0.06000000,0.96900000,0.06000000,-0.04000000,0.12000000,-0.09105454,-0.18257277,-0.04817212,3.39000000,-14.19000000,-0.08000000
262,0,0.25000000,0.05800000,0.96600000,0.14000000,0.37000000,0.12000000,-0.09085673,-0.18204997,-0.04800256,3.39000000,-14.19000000,-0.08000000
263,0,0.24700000,0.05400000,0.96600000,0.04000000,-0.02000000,0.03000000,-0.09079775,-0.18207946,-0.04795833,3.39000000,-14.19000000,-0.08000000
264,0,0.24200000,0.04900000,0.96600000,-0.10000000,-0.04000000,-0.09000000,-0.09614375,-0.18421786,-0.05276973,3.39000000,-14.19000000,-0.08000000
265,0,0.24000000,0.05900000,0.96800000,-0.13000000,0.29000000,0.17000000,-0.09633301,-0.18379566,-0.05252223,3.39000000,-14.19000000,-0.08000000
266,0,0.24700000,0.05600000,0.97200000,0.22000000,-0.13000000,0.29000000,-0.09603711,-0.18397051,-0.05213217,3.39000000,-14.19000000,-0.08000000
267,0,0.24400000,0.05500000,0.96900000,0.05000000,0.22000000,-0.18000000,-0.09597110,-0.18368006,-0.05236981,3.39000000,-14.19000000,-0.08000000
268,0,0.24000000,0.05300000,0.96400000,0.18000000,0.11000000,-0.11000000,-0.09573251,-0.18353426,-0.05251561,3.39000000,-14.19000000,-0.08000000
269,0,0.24400000,0.05500000,0.97200000,0.17000000,-0.01000000,-0.08000000,-0.09547909,-0.18354916,-0.05263487,3.39000000,-14.19000000,-0.08000000
270,0,0.24700000,0.06000000,0.96700000,0.06000000,0.01000000,-0.06000000,-0.09538924,-0.18353419,-0.05272473,3.39000000,-14.19000000,-0.08000000
271,0,0.24900000,0.05500000,0.96800000,0.08000000,-0.13000000,-0.13000000,-0.09088932,-0.19084656,-0.06003710,3.39000000,-14.19000000,-0.08000000
272,0,0.24300000,0.05700000,0.96600000,0.25000000,-0.03000000,-0.22000000,-0.09054960,-0.19088732,-0.06033604,3.39000000,-14.19000000,-0.08000000
273,0,0.24600000,0.06300000,0.96700000,-0.25000000,0.23000000,-0.02000000,-0.09087144,-0.19059124,-0.06036179,3.39000000,-14.19000000,-0.08000000
274,0,0.24200000,0.05600000,0.97000000,0.03000000,0.35000000,0.25000000,-0.09083324,-0.19014568,-0.06004354,3.39000000,-14.19000000,-0.08000000
275,0,0.24800000,0.05700000,0.96900000,0.09000000,0.03000000,0.02000000,-0.09072084,-0.19010821,-0.06001856,3.39000000,-14.19000000,-0.08000000
276,0,0.24600000,0.05600000,0.96800000,0.22000000,-0.04000000,-0.28000000,-0.09043810,-0.19015962,-0.06037841,3.39000000,-14.19000000,-0.08000000
277,0,0.24600000,0.05500000,0.97000000,-0.32000000,0.13000000,-0.06000000,-0.10782514,-0.18309614,-0.06363848,3.39000000,-14.19000000,-0.08000000
278,0,0.24500000,0.05900000,0.96600000,0.17000000,0.07000000,-0.17000000,-0.10759049,-0.18299951,-0.06387313,3.39000000,-14.19000000,-0.08000000
279,0,0.24300000,0.06100000,0.96400000,-0.05000000,-0.18000000,-0.10000000,-0.10765506,-0.18323196,-0.06400227,3.39000000,-14.19000000,-0.08000000
280,0,0.24500000,0.05900000,0.96500000,0.07000000,0.16000000,-0.03000000,-0.10756475,-0.18302553,-0.06404097,3.39000000,-14.19000000,-0.08000000
281,0,0.25100000,0.06100000,0.96800000,-0.13000000,-0.08000000,-0.08000000,-0.10773262,-0.18312884,-0.06414428,3.39000000,-14.19000000,-0.08000000
282,0,0.24400000,0.05600000,0.97000000,-0.23000000,0.04000000,0.06000000,-0.10802630,-0.18307777,-0.06406767,3.39000000,-14.18000000,-0.08000000
283,0,0.24600000,0.05400000,0.97200000,0.07000000,0.14000000,0.01000000,-0.10419326,-0.17541169,-0.06352010,3.39000000,-14.18000000,-0.08000000
284,0,0.24800000,0.05300000,0.96700000,-0.04000000,-0.20000000,0.09000000,-0.10424729,-0.17568184,-0.06339853,3.39000000,-14.18000000,-0.08000000
285,0,0.24500000,0.05400000,0.96800000,-0.08000000,-0.27000000,-0.05000000,-0.10435222,-0.17603598,-0.06346411,3.38000000,-14.18000000,-0.08000000
286,0,0.24300000,0.05900000,0.96700000,0.02000000,0.21000000,0.04000000,-0.10432614,-0.17576219,-0.06341196,3.38000000,-14.18000000,-0.08000000
287,0,0.24500000,0.05700000,0.97100000,0.03000000,-0.32000000,-0.22000000,-0.10428679,-0.17618199,-0.06370057,3.38000000,-14.18000000,-0.08000000
288,0,0.24400000,0.05700000,0.96500000,-0.15000000,0.20000000,0.02000000,-0.10448968,-0.17591146,-0.06367352,3.38000000,-14.18000000,-0.08000000
289,0,0.24200000,0.05300000,0.97100000,-0.14000000,0.00000000,-0.05000000,-0.11205109,-0.17591146,-0.06637402,3.38000000,-14.18000000,-0.08000000
290,0,0.24700000,0.05700000,0.96600000,-0.12000000,0.04000000,0.11000000,-0.11221873,-0.17585558,-0.06622035,3.38000000,-14.18000000,-0.08000000
291,0,0.24800000,0.05800000,0.96700000,0.07000000,0.26000000,0.23000000,-0.11210275,-0.17542480,-0.06583927,3.38000000,-14.18000000,-0.08000000
292,0,0.24500000,0.05700000,0.96900000,0.02000000,-0.14000000,0.13000000,-0.11207054,-0.17565022,-0.06562995,3.38000000,-14.18000000,-0.08000000
293,0,0.24700000,0.05900000,0.96600000,-0.22000000,0.06000000,0.19000000,-0.11240128,-0.17556002,-0.06534432,3.38000000,-14.18000000,-0.08000000
294,0,0.24500000,0.05700000,0.96800000,0.18000000,0.09000000,-0.17000000,-0.11202090,-0.17536983,-0.06570356,3.38000000,-14.18000000,-0.08000000
295,0,0.24800000,0.05600000,0.97000000,0.02000000,0.02000000,-0.09000000,-0.11095575,-0.17430468,-0.07049675,3.39000000,-14.18000000,-0.08000000
296,0,0.24900000,0.05800000,0.96800000,-0.04000000,-0.08000000,0.46000000,-0.11101482,-0.17442283,-0.06981739,3.39000000,-14.18000000,-0.08000000
297,0,0.24300000,0.05400000,0.96600000,0.06000000,-0.14000000,0.16000000,-0.11093283,-0.17461413,-0.06959875,3.38000000,-14.18000000,-0.08000000
298,0,0.24500000,0.05600000,0.97000000,-0.20000000,0.03000000,-0.09000000,-0.11119588,-0.17457468,-0.06971712,3.38000000,-14.18000000,-0.08000000
299,0,0.24600000,0.05700000,0.96600000,0.12000000,-0.14000000,-0.28000000,-0.11103422,-0.17476328,-0.07009433,3.38000000,-14.18000000,-0.08000000
300,0,0.24100000,0.05900000,0.96800000,0.04000000,-0.18000000,0.02000000,-0.11097850,-0.17501401,-0.07006647,3.38000000,-14.18000000,-0.08000000
301,0,0.24100000,0.05700000,0.97200000,0.12000000,-0.24000000,0.09000000,-0.10453060,-0.18790981,-0.06523054,3.38000000,-14.18000000,-0.08000000
302,0,0.24200000,0.05800000,0.97100000,-0.04000000,-0.01000000,0.23000000,-0.10458777,-0.18792410,-0.06490183,3.38000000,-14.18000000,-0.08000000
303,0,0.24400000,0.05800000,0.96400000,0.02000000,0.11000000,-0.21000000,-0.10456060,-0.18777468,-0.06518709,3.38000000,-14.18000000,-0.08000000
304,0,0.24500000,0.05500000,0.96800000,0.01000000,-0.26000000,-0.01000000,-0.10454748,-0.18811583,-0.06520021,3.38000000,-14.18000000,-0.08000000
305,0,0.24200000,0.05400000,0.97000000,-0.13000000,0.09000000,-0.07000000,-0.10472047,-0.18799607,-0.06529336,3.39000000,-14.18000000,-0.08000000
306,0,0.24900000,0.06000000,0.96500000,-0.01000000,-0.02000000,0.04000000,-0.10473589,-0.18802690,-0.06523170,3.39000000,-14.18000000,-0.08000000
307,0,0.24800000,0.05600000,0.96500000,0.19000000,0.09000000,0.12000000,-0.09456997,-0.18321146,-0.05881112,3.39000000,-14.18000000,-0.08000000
308,0,0.24400000,0.05900000,0.96300000,0.14000000,-0.03000000,0.09000000,-0.09437656,-0.18325291,-0.05868679,3.39000000,-14.18000000,-0.08000000
309,0,0.24500000,0.05800000,0.96900000,0.05000000,-0.02000000,0.07000000,-0.09431092,-0.18327917,-0.05859489,3.39000000,-14.18000000,-0.08000000
310,0,0.24800000,0.06000000,0.96500000,-0.05000000,0.05000000,-0.23000000,-0.09437617,-0.18321392,-0.05889503,3.39000000,-14.18000000,-0.08000000
311,0,0.24300000,0.05900000,0.96600000,-0.04000000,-0.19000000,0.15000000,-0.09442868,-0.18346336,-0.05869811,3.38000000,-14.19000000,-0.08000000
312,0,0.24700000,0.06100000,0.97000000,0.10000000,0.35000000,-0.01000000,-0.09429482,-0.18299485,-0.05871149,3.38000000,-14.19000000,-0.08000000
313,0,0.24600000,0.05700000,0.96700000,0.14000000,0.02000000,-0.13000000,-0.08662314,-0.18189890,-0.06583520,3.38000000,-14.18000000,-0.08000000
314,0,0.24400000,0.06200000,0.97100000,-0.01000000,0.01000000,-0.18000000,-0.08663616,-0.18188587,-0.06606967,3.38000000,-14.18000000,-0.08000000
315,0,0.24500000,0.05700000,0.96700000,0.07000000,0.04000000,-0.03000000,-0.08654340,-0.18183286,-0.06610942,3.39000000,-14.19000000,-0.07000000
316,0,0.24800000,0.05400000,0.96700000,-0.05000000,0.06000000,0.04000000,-0.08660933,-0.18175375,-0.06605668,3.39000000,-14.19000000,-0.08000000
317,0,0.24200000,0.05400000,0.96500000,0.20000000,0.04000000,-0.09000000,-0.08633884,-0.18169965,-0.06617840,3.39000000,-14.19000000,-0.07000000
318,0,0.24200000,0.06000000,0.96900000,0.08000000,-0.09000000,0.13000000,-0.08623616,-0.18181517,-0.06601154,3.39000000,-14.18000000,-0.07000000
319,0,0.24400000,0.05600000,0.96500000,0.08000000,0.29000000,-0.08000000,-0.08190825,-0.16612647,-0.07033946,3.39000000,-14.18000000,-0.07000000
320,0,0.24700000,0.05600000,0.96300000,0.11000000,-0.02000000,0.13000000,-0.08174490,-0.16615617,-0.07014641,3.39000000,-14.18000000,-0.07000000
321,0,0.24800000,0.05400000,0.96500000,0.05000000,-0.24000000,0.29000000,-0.08167397,-0.16649666,-0.06973499,3.39000000,-14.18000000,-0.07000000
322,0,0.24900000,0.05500000,0.96800000,0.02000000,-0.13000000,-0.01000000,-0.08164434,-0.16668921,-0.06974980,3.39000000,-14.18000000,-0.07000000
323,0,0.24700000,0.05600000,0.97000000,-0.11000000,0.20000000,0.07000000,-0.08180391,-0.16639908,-0.06964826,3.39000000,-14.18000000,-0.07000000
324,0,0.23800000,0.05800000,0.96900000,-0.29000000,0.17000000,0.14000000,-0.08222349,-0.16615312,-0.06944570,3.39000000,-14.18000000,-0.07000000
325,0,0.25100000,0.05400000,0.96800000,-0.04000000,0.10000000,-0.03000000,-0.08436222,-0.16080631,-0.07104974,3.38000000,-14.18000000,-0.07000000
326,0,0.25100000,0.05500000,0.97000000,0.01000000,-0.20000000,-0.09000000,-0.08434619,-0.16112681,-0.07119397,3.38000000,-14.18000000,-0.07000000
327,0,0.25100000,0.06000000,0.96700000,-0.30000000,0.22000000,0.07000000,-0.08478925,-0.16080190,-0.07109059,3.38000000,-14.19000000,-0.07000000
328,0,0.24100000,0.06200000,0.96900000,-0.16000000,0.04000000,-0.15000000,-0.08502929,-0.16074189,-0.07131562,3.39000000,-14.19000000,-0.07000000
329,0,0.24700000,0.05900000,0.96600000,-0.08000000,-0.01000000,-0.01000000,-0.08515434,-0.16075753,-0.07133126,3.38000000,-14.19000000,-0.07000000
330,0,0.24100000,0.06300000,0.96600000,0.04000000,0.21000000,-0.03000000,-0.08509039,-0.16042180,-0.07137922,3.38000000,-14.19000000,-0.07000000
331,0,0.25000000,0.05600000,0.96800000,-0.21000000,0.03000000,-0.32000000,-0.09631574,-0.15881818,-0.08848451,3.39000000,-14.19000000,-0.07000000
332,0,0.24400000,0.05200000,0.96900000,0.03000000,-0.21000000,-0.05000000,-0.09627532,-0.15910108,-0.08855186,3.39000000,-14.19000000,-0.07000000
333,0,0.24800000,0.05800000,0.96500000,0.06000000,0.13000000,-0.08000000,-0.09619544,-0.15892800,-0.08865838,3.38000000,-14.19000000,-0.07000000
334,0,0.24400000,0.05600000,0.96800000,0.06000000,0.26000000,0.44000000,-0.09611475,-0.15857835,-0.08806667,3.38000000,-14.19000000,-0.07000000
335,0,0.24600000,0.05700000,0.97100000,0.03000000,-0.08000000,-0.12000000,-0.09607315,-0.15868929,-0.08823308,3.38000000,-14.19000000,-0.07000000
336,0,0.24700000,0.05700000,0.96800000,-0.08000000,0.01000000,0.10000000,-0.09619261,-0.15867436,-0.08808375,3.38000000,-14.19000000,-0.07000000
337,0,0.24100000,0.05400000,0.96700000,-0.16000000,0.14000000,-0.21000000,-0.10478440,-0.15115655,-0.09936047,3.38000000,-14.19000000,-0.07000000
338,0,0.24400000,0.05800000,0.96800000,0.17000000,0.04000000,0.10000000,-0.10455420,-0.15110239,-0.09922506,3.38000000,-14.19000000,-0.07000000
339,0,0.24900000,0.05700000,0.97000000,0.04000000,-0.07000000,-0.07000000,-0.10450139,-0.15119480,-0.09931747,3.38000000,-14.19000000,-0.07000000
340,0,0.24900000,0.05700000,0.96700000,0.01000000,-0.12000000,-0.18000000,-0.10448441,-0.15139860,-0.09962318,3.38000000,-14.19000000,-0.07000000
341,0,0.24400000,0.05700000,0.96800000,-0.18000000,-0.23000000,0.12000000,-0.10471016,-0.15168707,-0.09947268,3.38000000,-14.19000000,-0.07000000
342,0,0.24600000,0.05700000,0.96900000,-0.25000000,0.07000000,0.04000000,-0.10527727,-0.15152828,-0.09938194,3.38000000,-14.19000000,-0.07000000
343,0,0.24500000,0.05500000,0.96800000,-0.20000000,-0.07000000,0.25000000,-0.11582011,-0.15521827,-0.08620339,3.38000000,-14.19000000,-0.07000000
344,0,0.24400000,0.05400000,0.96500000,-0.02000000,0.15000000,-0.05000000,-0.11584776,-0.15501090,-0.08627251,3.38000000,-14.19000000,-0.07000000
345,0,0.24700000,0.05900000,0.96900000,-0.05000000,-0.06000000,-0.03000000,-0.11592239,-0.15510046,-0.08631729,3.38000000,-14.19000000,-0.07000000
346,0,0.24500000,0.05800000,0.96500000,0.08000000,-0.17000000,0.03000000,-0.11581248,-0.15533402,-0.08627607,3.38000000,-14.19000000,-0.07000000
347,0,0.24100000,0.05500000,0.96900000,0.20000000,-0.02000000,0.01000000,-0.11543218,-0.15537205,-0.08625706,3.38000000,-14.19000000,-0.07000000
348,0,0.24500000,0.05700000,0.97100000,-0.10000000,0.09000000,-0.10000000,-0.11557942,-0.15523954,-0.08640429,3.38000000,-14.19000000,-0.07000000
349,0,0.24600000,0.05900000,0.96900000,-0.04000000,-0.09000000,-0.32000000,-0.11773625,-0.16009241,-0.10365896,3.38000000,-14.19000000,-0.07000000
350,0,0.24900000,0.05700000,0.96800000,-0.00000000,0.05000000,-0.24000000,-0.11773625,-0.16002100,-0.10400174,3.38000000,-14.19000000,-0.07000000
351,0,0.24300000,0.05700000,0.97100000,-0.14000000,0.06000000,-0.08000000,-0.11792335,-0.15994082,-0.10410865,3.38000000,-14.19000000,-0.07000000
352,0,0.24100000,0.05600000,0.96800000,-0.09000000,-0.19000000,0.07000000,-0.11804116,-0.16018953,-0.10401702,3.38000000,-14.19000000,-0.07000000
353,0,0.24400000,0.05900000,0.97200000,0.06000000,-0.06000000,0.01000000,-0.11796254,-0.16026816,-0.10400392,3.38000000,-14.19000000,-0.07000000
354,0,0.24600000,0.05900000,0.96800000,0.08000000,0.17000000,0.06000000,-0.11785398,-0.16003748,-0.10392250,3.38000000,-14.19000000,-0.07000000
355,0,0.24500000,0.05500000,0.96800000,-0.04000000,0.04000000,0.05000000,-0.12000461,-0.15788685,-0.10123422,3.38000000,-14.19000000,-0.07000000
356,0,0.24400000,0.05600000,0.96700000,0.06000000,0.09000000,0.12000000,-0.11991697,-0.15775539,-0.10105894,3.38000000,-14.19000000,-0.07000000
357,0,0.24100000,0.06300000,0.96800000,0.02000000,0.09000000,-0.01000000,-0.11988964,-0.15763243,-0.10107260,3.38000000,-14.19000000,-0.07000000
358,0,0.24400000,0.05900000,0.97300000,-0.22000000,-0.13000000,-0.01000000,-0.12018403,-0.15780639,-0.10108598,3.38000000,-14.19000000,-0.07000000
359,0,0.24300000,0.05600000,0.97100000,-0.06000000,-0.08000000,0.31000000,-0.12026363,-0.15791252,-0.10067472,3.38000000,-14.19000000,-0.07000000
360,0,0.24700000,0.05800000,0.96200000,-0.09000000,-0.03000000,0.01000000,-0.12039017,-0.15795470,-0.10066066,3.38000000,-14.19000000,-0.07000000
361,0,0.25100000,0.05400000,0.97000000,0.06000000,0.15000000,-0.03000000,-0.11716448,-0.14989046,-0.10227350,3.38000000,-14.19000000,-0.07000000
362,0,0.24200000,0.05400000,0.96700000,-0.15000000,0.09000000,0.07000000,-0.11738404,-0.14975872,-0.10217104,3.38000000,-14.19000000,-0.07000000
363,0,0.24500000,0.06100000,0.97100000,0.16000000,0.04000000,-0.07000000,-0.11715575,-0.14970165,-0.10227092,3.38000000,-14.19000000,-0.07000000
364,0,0.24700000,0.05600000,0.96600000,-0.16000000,-0.02000000,0.25000000,-0.11737927,-0.14972959,-0.10192167,3.38000000,-14.19000000,-0.07000000
365,0,0.25100000,0.05600000,0.96400000,-0.22000000,-0.19000000,0.05000000,-0.11769595,-0.15000309,-0.10184970,3.38000000,-14.19000000,-0.07000000
366,0,0.24600000,0.05200000,0.96300000,-0.06000000,-0.03000000,-0.18000000,-0.11778350,-0.15004686,-0.10211236,3.38000000,-14.19000000,-0.07000000
367,0,0.24100000,0.05900000,0.96900000,0.33000000,-0.08000000,0.00000000,-0.09988301,-0.15438637,-0.10211236,3.38000000,-14.19000000,-0.07000000
368,0,0.24300000,0.05600000,0.96900000,-0.23000000,-0.04000000,-0.03000000,-0.10021551,-0.15444420,-0.10215573,3.38000000,-14.19000000,-0.07000000
369,0,0.24900000,0.05300000,0.97000000,0.05000000,0.02000000,-0.02000000,-0.10014247,-0.15441499,-0.10218494,3.38000000,-14.19000000,-0.07000000
370,0,0.24100000,0.05400000,0.96700000,0.02000000,0.01000000,-0.24000000,-0.10011332,-0.15440041,-0.10253481,3.38000000,-14.19000000,-0.07000000
371,0,0.24100000,0.05500000,0.97200000,-0.05000000,0.11000000,-0.02000000,-0.10018852,-0.15423496,-0.10256489,3.38000000,-14.19000000,-0.07000000
372,0,0.24400000,0.05900000,0.96600000,0.03000000,0.09000000,0.10000000,-0.10014420,-0.15410200,-0.10241716,3.38000000,-14.19000000,-0.07000000
373,0,0.24500000,0.06000000,0.96700000,-0.10000000,0.08000000,-0.03000000,-0.10546068,-0.14984882,-0.10401210,3.38000000,-14.19000000,-0.07000000
374,0,0.24800000,0.05700000,0.96500000,-0.08000000,-0.08000000,-0.17000000,-0.10557157,-0.14995970,-0.10424773,3.38000000,-14.19000000,-0.07000000
375,0,0.24500000,0.06100000,0.97100000,0.12000000,-0.01000000,0.02000000,-0.10541033,-0.14997314,-0.10422085,3.38000000,-14.19000000,-0.07000000
376,0,0.24500000,0.05900000,0.96600000,0.10000000,0.05000000,-0.01000000,-0.10527934,-0.14990764,-0.10423395,3.38000000,-14.19000000,-0.07000000
377,0,0.24600000,0.05600000,0.96500000,0.09000000,0.07000000,0.13000000,-0.10516150,-0.14981599,-0.10406375,3.38000000,-14.19000000,-0.07000000
378,0,0.24900000,0.06200000,0.96900000,0.02000000,-0.14000000,-0.17000000,-0.10512761,-0.15005326,-0.10435186,3.38000000,-14.19000000,-0.07000000
379,0,0.25200000,0.06100000,0.96600000,-0.03000000,0.08000000,-0.19000000,-0.10673618,-0.14576374,-0.11453947,3.38000000,-14.19000000,-0.07000000
380,0,0.24300000,0.05700000,0.97300000,-0.00000000,0.25000000,0.06000000,-0.10673618,-0.14539911,-0.11445196,3.38000000,-14.19000000,-0.07000000
381,0,0.24100000,0.06200000,0.96200000,0.11000000,0.11000000,0.11000000,-0.10658274,-0.14524568,-0.11429853,3.38000000,-14.19000000,-0.08000000
382,0,0.24500000,0.05600000,0.96400000,0.09000000,-0.14000000,-0.11000000,-0.10645706,-0.14544119,-0.11445215,3.38000000,-14.19000000,-0.08000000
383,0,0.24600000,0.05200000,0.96700000,-0.12000000,-0.12000000,-0.12000000,-0.10662370,-0.14560783,-0.11461879,3.38000000,-14.19000000,-0.07000000
384,0,0.24400000,0.06000000,0.97000000,-0.06000000,-0.12000000,-0.04000000,-0.10673032,-0.14582107,-0.11468987,3.38000000,-14.19000000,-0.08000000
385,0,0.25000000,0.05900000,0.97000000,-0.01000000,-0.01000000,0.06000000,-0.10727155,-0.14636230,-0.11144247,3.38000000,-14.19000000,-0.08000000
386,0,0.24500000,0.06000000,0.96900000,-0.06000000,-0.15000000,0.12000000,-0.10736423,-0.14659399,-0.11125712,3.38000000,-14.19000000,-0.07000000
387,0,0.24800000,0.05800000,0.96300000,-0.04000000,0.04000000,0.02000000,-0.10742008,-0.14653814,-0.11122920,3.38000000,-14.19000000,-0.07000000
388,0,0.25100000,0.05800000,0.97200000,-0.06000000,-0.06000000,0.01000000,-0.10750371,-0.14662177,-0.11121526,3.38000000,-14.19000000,-0.07000000
389,0,0.24700000,0.05800000,0.96600000,0.07000000,-0.09000000,-0.03000000,-0.10740075,-0.14675416,-0.11125938,3.38000000,-14.19000000,-0.07000000
390,0,0.24700000,0.05600000,0.96700000,0.02000000,0.00000000,-0.10000000,-0.10737138,-0.14675416,-0.11140624,3.37000000,-14.20000000,-0.07000000
391,0,0.24200000,0.06100000,0.97100000,-0.03000000,0.04000000,0.08000000,-0.10905962,-0.14450317,-0.10690426,3.37000000,-14.20000000,-0.07000000
392,0,0.24600000,0.06000000,0.97100000,-0.04000000,0.16000000,0.31000000,-0.10911900,-0.14426565,-0.10644406,3.37000000,-14.20000000,-0.07000000
393,0,0.24900000,0.05500000,0.96700000,-0.23000000,-0.17000000,-0.13000000,-0.10942792,-0.14449398,-0.10661867,3.37000000,-14.20000000,-0.07000000
394,0,0.25200000,0.05500000,0.96100000,-0.06000000,-0.01000000,-0.05000000,-0.10950667,-0.14450710,-0.10668430,3.37000000,-14.20000000,-0.07000000
395,0,0.24600000,0.05700000,0.96700000,0.15000000,0.16000000,-0.02000000,-0.10931153,-0.14429895,-0.10671032,3.37000000,-14.20000000,-0.07000000
396,0,0.24500000,0.05500000,0.97100000,-0.10000000,0.13000000,-0.09000000,-0.10944549,-0.14412481,-0.10683087,3.37000000,-14.20000000,-0.07000000
397,0,0.24900000,0.05700000,0.96600000,0.18000000,-0.16000000,-0.01000000,-0.10920742,-0.14433643,-0.10684410,3.37000000,-14.20000000,-0.07000000
398,0,0.24600000,0.05800000,0.96600000,-0.11000000,-0.16000000,-0.25000000,-0.11511655,-0.15293153,-0.12027395,3.37000000,-14.20000000,-0.07000000
399,0,0.24400000,0.05900000,0.96700000,-0.07000000,-0.13000000,-0.14000000,-0.11521302,-0.15311070,-0.12046689,3.37000000,-14.20000000,-0.07000000
400,0,0.24600000,0.06100000,0.96600000,0.03000000,0.12000000,-0.10000000,-0.11516832,-0.15293187,-0.12061591,3.37000000,-14.20000000,-0.07000000
401,0,0.24400000,0.05700000,0.96800000,0.02000000,-0.19000000,0.06000000,-0.11514211,-0.15318081,-0.12053730,3.37000000,-14.20000000,-0.07000000
402,0,0.24500000,0.05600000,0.96700000,-0.07000000,0.08000000,-0.07000000,-0.11524302,-0.15306548,-0.12063821,3.37000000,-14.20000000,-0.07000000
403,0,0.24500000,0.05800000,0.96900000,0.00000000,-0.09000000,-0.08000000,-0.11524302,-0.15320160,-0.12075920,3.37000000,-14.20000000,-0.07000000
404,0,0.24900000,0.05500000,0.96500000,0.11000000,0.19000000,0.03000000,-0.10926405,-0.14287428,-0.11912857,3.37000000,-14.20000000,-0.07000000
405,0,0.24000000,0.05700000,0.97400000,0.10000000,-0.22000000,-0.01000000,-0.10912948,-0.14317034,-0.11914203,3.37000000,-14.20000000,-0.07000000
406,0,0.24600000,0.05500000,0.96600000,0.04000000,0.03000000,0.06000000,-0.10907771,-0.14313152,-0.11906437,3.37000000,-14.20000000,-0.07000000
407,0,0.24900000,0.05700000,0.96900000,0.05000000,0.18000000,-0.26000000,-0.10901260,-0.14289714,-0.11940292,3.37000000,-14.20000000,-0.07000000
408,0,0.24600000,0.05300000,0.96800000,-0.21000000,0.20000000,0.16000000,-0.10928980,-0.14263314,-0.11919172,3.37000000,-14.20000000,-0.08000000
409,0,0.24700000,0.05600000,0.97000000,0.15000000,-0.23000000,-0.20000000,-0.10909480,-0.14293213,-0.11945172,3.37000000,-14.20000000,-0.08000000
410,0,0.24500000,0.05400000,0.96200000,0.23000000,-0.00000000,0.05000000,-0.09669427,-0.14293213,-0.11675595,3.37000000,-14.20000000,-0.08000000
411,0,0.24700000,0.05800000,0.97200000,0.07000000,0.01000000,0.19000000,-0.09659593,-0.14291808,-0.11648902,3.37000000,-14.20000000,-0.08000000
412,0,0.24100000,0.05600000,0.96900000,-0.05000000,0.14000000,0.05000000,-0.09666322,-0.14272968,-0.11642174,3.37000000,-14.20000000,-0.08000000
413,0,0.24600000,0.06100000,0.97100000,-0.15000000,0.14000000,0.17000000,-0.09686336,-0.14254288,-0.11619491,3.37000000,-14.20000000,-0.08000000
414,0,0.24600000,0.05900000,0.96800000,-0.11000000,0.07000000,0.07000000,-0.09700722,-0.14245133,-0.11610336,3.37000000,-14.20000000,-0.08000000
415,0,0.24400000,0.05500000,0.97100000,-0.09000000,-0.08000000,0.03000000,-0.09712727,-0.14255804,-0.11606334,3.37000000,-14.20000000,-0.08000000
416,0,0.24700000,0.05600000,0.97000000,0.00000000,0.01000000,0.17000000,-0.09712727,-0.14201827,-0.10688732,3.37000000,-14.20000000,-0.07000000
417,0,0.24200000,0.05600000,0.97200000,-0.13000000,-0.26000000,0.10000000,-0.09730286,-0.14236946,-0.10675224,3.37000000,-14.20000000,-0.07000000
418,0,0.24600000,0.05900000,0.96800000,0.04000000,-0.02000000,0.03000000,-0.09724899,-0.14239640,-0.10671184,3.37000000,-14.20000000,-0.07000000
419,0,0.24800000,0.05600000,0.96900000,-0.31000000,-0.04000000,0.02000000,-0.09766588,-0.14245019,-0.10668494,3.37000000,-14.20000000,-0.07000000
420,0,0.24400000,0.05900000,0.97000000,-0.15000000,0.02000000,0.12000000,-0.09786352,-0.14242384,-0.10652683,3.37000000,-14.20000000,-0.07000000
421,0,0.24300000,0.05700000,0.96900000,0.04000000,0.02000000,0.02000000,-0.09781143,-0.14239779,-0.10650079,3.37000000,-14.20000000,-0.07000000
422,0,0.24300000,0.05600000,0.96500000,-0.08000000,-0.18000000,-0.11000000,-0.10219543,-0.15226178,-0.11252878,3.37000000,-14.20000000,-0.07000000
423,0,0.24600000,0.05600000,0.96700000,-0.00000000,-0.05000000,-0.08000000,-0.10219543,-0.15232998,-0.11263791,3.37000000,-14.20000000,-0.07000000
424,0,0.24300000,0.05500000,0.97100000,0.16000000,0.11000000,0.08000000,-0.10189996,-0.15212685,-0.11249017,3.37000000,-14.20000000,-0.07000000
425,0,0.24200000,0.05500000,0.96900000,-0.16000000,0.16000000,-0.03000000,-0.10212695,-0.15189986,-0.11253273,3.37000000,-14.20000000,-0.07000000
426,0,0.24700000,0.06100000,0.96900000,-0.22000000,-0.08000000,-0.05000000,-0.10242050,-0.15200660,-0.11259945,3.37000000,-14.20000000,-0.07000000
427,0,0.24400000,0.06100000,0.96800000,0.09000000,0.29000000,0.12000000,-0.10230050,-0.15161993,-0.11243945,3.37000000,-14.20000000,-0.07000000
428,0,0.25000000,0.05300000,0.96800000,-0.04000000,0.05000000,-0.20000000,-0.10442807,-0.14896046,-0.12307732,3.37000000,-14.20000000,-0.07000000
429,0,0.24800000,0.05500000,0.96700000,0.35000000,0.14000000,-0.00000000,-0.10395665,-0.14877189,-0.12307732,3.37000000,-14.20000000,-0.07000000
430,0,0.24900000,0.06000000,0.97100000,0.03000000,-0.08000000,-0.04000000,-0.10390223,-0.14891701,-0.12314988,3.37000000,-14.20000000,-0.07000000
431,0,0.24100000,0.06100000,0.96400000,0.09000000,-0.01000000,-0.12000000,-0.10378038,-0.14893055,-0.12331235,3.37000000,-14.20000000,-0.07000000
432,0,0.24500000,0.06000000,0.96500000,0.13000000,-0.03000000,0.34000000,-0.10360940,-0.14897001,-0.12286517,3.37000000,-14.20000000,-0.07000000
433,0,0.24300000,0.06000000,0.97000000,0.07000000,-0.08000000,-0.12000000,-0.10351754,-0.14907500,-0.12302265,3.37000000,-14.20000000,-0.07000000
434,0,0.24500000,0.05600000,0.96900000,0.03000000,0.00000000,-0.01000000,-0.10190985,-0.14907500,-0.12355855,3.37000000,-14.20000000,-0.07000000
435,0,0.24600000,0.05600000,0.96900000,0.03000000,0.16000000,0.05000000,-0.10185942,-0.14880601,-0.12347449,3.37000000,-14.20000000,-0.07000000
436,0,0.24900000,0.05600000,0.97300000,-0.02000000,0.13000000,0.12000000,-0.10188634,-0.14863100,-0.12331294,3.37000000,-14.20000000,-0.07000000
437,0,0.25000000,0.05600000,0.96700000,-0.03000000,0.34000000,0.07000000,-0.10192575,-0.14818431,-0.12322098,3.37000000,-14.20000000,-0.07000000
438,0,0.24600000,0.05800000,0.97200000,-0.13000000,0.17000000,0.11000000,-0.10209577,-0.14796198,-0.12307712,3.37000000,-14.20000000,-0.07000000
439,0,0.24900000,0.05800000,0.96500000,-0.14000000,-0.23000000,-0.06000000,-0.10246412,-0.14856712,-0.12323498,3.37000000,-14.20000000,-0.07000000
440,0,0.24300000,0.05700000,0.96700000,-0.06000000,-0.12000000,0.05000000,-0.10565405,-0.15494699,-0.12057670,3.37000000,-14.20000000,-0.07000000
441,0,0.25100000,0.05300000,0.96800000,-0.02000000,0.28000000,-0.11000000,-0.10568164,-0.15456077,-0.12072843,3.37000000,-14.20000000,-0.07000000
442,0,0.24400000,0.05800000,0.96900000,-0.05000000,-0.16000000,-0.20000000,-0.10574751,-0.15477154,-0.12099191,3.37000000,-14.20000000,-0.08000000
443,0,0.24400000,0.06000000,0.96500000,0.01000000,-0.14000000,0.01000000,-0.10573479,-0.15494953,-0.12097919,3.37000000,-14.20000000,-0.07000000
444,0,0.24400000,0.06300000,0.96700000,-0.43000000,0.15000000,0.35000000,-0.10634739,-0.15473584,-0.12048056,3.37000000,-14.20000000,-0.07000000
445,0,0.25100000,0.05600000,0.96500000,-0.12000000,-0.23000000,-0.05000000,-0.10653623,-0.15509778,-0.12055925,3.36000000,-14.20000000,-0.07000000
446,0,0.25000000,0.05700000,0.96700000,0.04000000,-0.13000000,-0.14000000,-0.10439839,-0.16204578,-0.12804171,3.37000000,-14.20000000,-0.07000000
447,0,0.24300000,0.05700000,0.96400000,0.05000000,0.22000000,0.09000000,-0.10433307,-0.16175837,-0.12792413,3.36000000,-14.20000000,-0.07000000
448,0,0.24300000,0.05900000,0.96300000,0.28000000,0.00000000,-0.27000000,-0.10397909,-0.16175837,-0.12826547,3.37000000,-14.20000000,-0.07000000
449,0,0.24600000,0.05500000,0.97200000,-0.08000000,0.11000000,-0.00000000,-0.10407891,-0.16162112,-0.12826547,3.37000000,-14.20000000,-0.07000000
450,0,0.24400000,0.05200000,0.96600000,-0.13000000,-0.08000000,-0.13000000,-0.10424267,-0.16172189,-0.12842922,3.37000000,-14.20000000,-0.07000000
451,0,0.24300000,0.06200000,0.96800000,0.05000000,0.25000000,0.23000000,-0.10417811,-0.16139911,-0.12813226,3.37000000,-14.20000000,-0.07000000
452,0,0.24000000,0.05800000,0.96700000,0.06000000,0.04000000,0.25000000,-0.10091478,-0.15922355,-0.11453504,3.37000000,-14.20000000,-0.07000000
453,0,0.24500000,0.05500000,0.97000000,-0.06000000,-0.10000000,0.20000000,-0.10099680,-0.15936025,-0.11426165,3.36000000,-14.20000000,-0.07000000
454,0,0.24500000,0.05600000,0.96700000,-0.02000000,-0.01000000,-0.07000000,-0.10102335,-0.15937353,-0.11435459,3.36000000,-14.20000000,-0.07000000
455,0,0.25000000,0.05200000,0.96500000,0.18000000,0.06000000,-0.23000000,-0.10078764,-0.15929496,-0.11465577,3.36000000,-14.20000000,-0.07000000
456,0,0.24800000,0.05600000,0.96600000,-0.16000000,-0.06000000,-0.15000000,-0.10099708,-0.15937350,-0.11485212,3.36000000,-14.20000000,-0.07000000
457,0,0.24900000,0.05300000,0.96800000,-0.03000000,-0.02000000,-0.14000000,-0.10103855,-0.15940114,-0.11504563,3.36000000,-14.20000000,-0.07000000
458,0,0.24400000,0.06100000,0.96700000,0.05000000,0.08000000,0.01000000,-0.09830326,-0.15502468,-0.11449858,3.36000000,-14.20000000,-0.07000000
459,0,0.24600000,0.05700000,0.97000000,-0.12000000,-0.14000000,-0.00000000,-0.09846853,-0.15521749,-0.11449858,3.36000000,-14.20000000,-0.07000000
460,0,0.24900000,0.05700000,0.96800000,0.10000000,0.17000000,-0.11000000,-0.09833255,-0.15498633,-0.11464816,3.36000000,-14.20000000,-0.07000000
461,0,0.24700000,0.05500000,0.97200000,0.10000000,0.14000000,-0.04000000,-0.09819945,-0.15479999,-0.11470139,3.36000000,-14.20000000,-0.07000000
462,0,0.24100000,0.05200000,0.96800000,0.03000000,-0.02000000,-0.17000000,-0.09816003,-0.15482628,-0.11492482,3.36000000,-14.20000000,-0.07000000
463,0,0.24500000,0.05700000,0.96600000,-0.03000000,-0.08000000,-0.00000000,-0.09820124,-0.15493619,-0.11492482,3.36000000,-14.20000000,-0.07000000
464,0,0.24500000,0.05800000,0.96500000,-0.05000000,-0.05000000,-0.11000000,-0.10089138,-0.15762633,-0.12084313,3.36000000,-14.20000000,-0.07000000
465,0,0.24700000,0.05600000,0.96500000,0.09000000,0.24000000,-0.04000000,-0.10075224,-0.15725529,-0.12090497,3.36000000,-14.20000000,-0.07000000
466,0,0.24600000,0.05600000,0.96600000,0.27000000,-0.24000000,0.24000000,-0.10037293,-0.15759245,-0.12056780,3.36000000,-14.20000000,-0.07000000
467,0,0.24600000,0.06300000,0.96400000,-0.22000000,0.00000000,0.05000000,-0.10070644,-0.15759245,-0.12049200,3.36000000,-14.20000000,-0.07000000
468,0,0.24700000,0.05500000,0.96800000,0.06000000,-0.27000000,0.06000000,-0.10062068,-0.15797840,-0.12040624,3.36000000,-14.20000000,-0.07000000
469,0,0.24900000,0.05600000,0.96400000,0.16000000,-0.06000000,-0.12000000,-0.10037209,-0.15807162,-0.12059268,3.36000000,-14.20000000,-0.07000000
470,0,0.24400000,0.05900000,0.96500000,-0.06000000,0.09000000,0.02000000,-0.10356656,-0.15327992,-0.11952785,3.36000000,-14.20000000,-0.07000000
471,0,0.24200000,0.05700000,0.97000000,-0.07000000,-0.10000000,0.07000000,-0.10366961,-0.15342713,-0.11942481,3.36000000,-14.20000000,-0.07000000
472,0,0.24400000,0.05900000,0.96700000,0.14000000,0.24000000,-0.01000000,-0.10347259,-0.15308939,-0.11943888,3.36000000,-14.19000000,-0.07000000
473,0,0.24800000,0.05600000,0.96900000,-0.03000000,-0.08000000,-0.11000000,-0.10351430,-0.15320059,-0.11959179,3.36000000,-14.19000000,-0.07000000
474,0,0.24900000,0.05400000,0.96600000,0.15000000,0.12000000,0.06000000,-0.10330528,-0.15303338,-0.11950818,3.36000000,-14.19000000,-0.07000000
475,0,0.24600000,0.05600000,0.96700000,-0.15000000,0.00000000,-0.18000000,-0.10352231,-0.15303338,-0.11976861,3.36000000,-14.20000000,-0.07000000
476,0,0.25000000,0.05800000,0.96900000,-0.01000000,0.10000000,0.09000000,-0.10406472,-0.14760921,-0.11488685,3.36000000,-14.19000000,-0.07000000
477,0,0.24400000,0.06000000,0.96900000,0.04000000,-0.04000000,0.04000000,-0.10400678,-0.14766715,-0.11482891,3.36000000,-14.19000000,-0.07000000
478,0,0.24500000,0.06000000,0.97000000,0.12000000,0.01000000,-0.26000000,-0.10383508,-0.14765284,-0.11520094,3.36000000,-14.19000000,-0.07000000
479,0,0.24000000,0.05400000,0.96500000,0.20000000,-0.04000000,-0.04000000,-0.10355616,-0.14770862,-0.11525672,3.37000000,-14.19000000,-0.07000000
480,0,0.24500000,0.05600000,0.96600000,-0.01000000,-0.00000000,-0.21000000,-0.10357021,-0.14770862,-0.11555169,3.37000000,-14.19000000,-0.07000000
481,0,0.24500000,0.06100000,0.96600000,0.01000000,-0.09000000,-0.21000000,-0.10355570,-0.14783914,-0.11585623,3.37000000,-14.19000000,-0.07000000
482,0,0.24800000,0.05700000,0.96500000,0.23000000,0.07000000,-0.10000000,-0.09126742,-0.14409922,-0.12119896,3.37000000,-14.19000000,-0.07000000
483,0,0.24500000,0.05700000,0.96600000,-0.11000000,0.14000000,0.12000000,-0.09141923,-0.14390601,-0.12103335,3.37000000,-14.20000000,-0.07000000
484,0,0.24700000,0.05200000,0.96600000,0.11000000,0.03000000,0.24000000,-0.09127424,-0.14386647,-0.12071701,3.37000000,-14.20000000,-0.07000000
485,0,0.24500000,0.05600000,0.96700000,0.08000000,0.07000000,0.12000000,-0.09117017,-0.14377541,-0.12056090,3.37000000,-14.19000000,-0.07000000
486,0,0.24700000,0.06100000,0.96600000,-0.21000000,0.01000000,0.11000000,-0.09145102,-0.14376203,-0.12041379,3.37000000,-14.19000000,-0.07000000
487,0,0.24600000,0.06000000,0.96900000,0.04000000,-0.04000000,0.02000000,-0.09139541,-0.14381765,-0.12038598,3.37000000,-14.19000000,-0.07000000
488,0,0.24400000,0.06300000,0.96700000,0.04000000,0.17000000,0.14000000,-0.08922752,-0.13460413,-0.11279838,3.37000000,-14.19000000,-0.07000000
489,0,0.25100000,0.05400000,0.97100000,-0.03000000,0.10000000,0.05000000,-0.08927121,-0.13445849,-0.11272556,3.37000000,-14.19000000,-0.07000000
490,0,0.24900000,0.06000000,0.96700000,0.25000000,-0.05000000,0.17000000,-0.08893305,-0.13452612,-0.11249561,3.37000000,-14.19000000,-0.07000000
491,0,0.24800000,0.06000000,0.96700000,-0.22000000,-0.08000000,0.11000000,-0.08922476,-0.13463220,-0.11234975,3.37000000,-14.20000000,-0.07000000
492,0,0.25000000,0.05500000,0.96900000,-0.03000000,0.01000000,0.10000000,-0.08926598,-0.13461846,-0.11221234,3.37000000,-14.20000000,-0.07000000
493,0,0.24100000,0.05900000,0.97000000,-0.08000000,-0.04000000,0.13000000,-0.08937539,-0.13467316,-0.11203454,3.37000000,-14.20000000,-0.06000000
494,0,0.24200000,0.05400000,0.96800000,-0.11000000,0.06000000,0.08000000,-0.09535612,-0.13141095,-0.10768492,3.37000000,-14.20000000,-0.06000000
495,0,0.24100000,0.05600000,0.96600000,-0.03000000,0.13000000,0.16000000,-0.09539927,-0.13122398,-0.10745480,3.37000000,-14.20000000,-0.06000000
496,0,0.24200000,0.06100000,0.96800000,0.12000000,0.00000000,0.06000000,-0.09523941,-0.13122398,-0.10737488,3.37000000,-14.20000000,-0.06000000
497,0,0.24300000,0.06400000,0.96900000,0.09000000,0.02000000,0.01000000,-0.09512042,-0.13119753,-0.10736165,3.37000000,-14.20000000,-0.06000000
498,0,0.25200000,0.05500000,0.96600000,-0.08000000,0.05000000,-0.08000000,-0.09522503,-0.13113215,-0.10746626,3.37000000,-14.20000000,-0.06000000
499,0,0.24200000,0.05800000,0.96800000,0.12000000,0.22000000,0.09000000,-0.09506033,-0.13083022,-0.10734274,3.37000000,-14.20000000,-0.06000000
500,0,0.24900000,0.05200000,0.97100000,0.11000000,0.11000000,-0.11000000,-0.08915034,-0.12492022,-0.11325274,3.37000000,-14.20000000,-0.06000000
501,0,0.24700000,0.06000000,0.96700000,0.08000000,0.22000000,0.15000000,-0.08904096,-0.12461944,-0.11304766,3.37000000,-14.20000000,-0.06000000
502,0,0.24600000,0.05500000,0.97200000,-0.19000000,-0.30000000,-0.23000000,-0.08929085,-0.12501400,-0.11335016,3.37000000,-14.20000000,-0.06000000
503,0,0.24500000,0.05700000,0.96900000,0.00000000,0.11000000,-0.02000000,-0.08929085,-0.12486896,-0.11337653,3.37000000,-14.20000000,-0.06000000
504,0,0.24500000,0.05700000,0.97100000,-0.08000000,0.24000000,0.03000000,-0.08939554,-0.12455491,-0.11333728,3.37000000,-14.20000000,-0.06000000
505,0,0.24900000,0.05900000,0.96500000,0.00000000,0.22000000,-0.03000000,-0.08939554,-0.12425927,-0.11337759,3.37000000,-14.20000000,-0.06000000
506,0,0.25100000,0.05900000,0.97500000,0.09000000,-0.32000000,-0.14000000,-0.08452794,-0.14156628,-0.12094941,3.37000000,-14.20000000,-0.07000000
507,0,0.24900000,0.05700000,0.96600000,0.14000000,0.03000000,0.06000000,-0.08433526,-0.14152499,-0.12086683,3.37000000,-14.20000000,-0.07000000
508,0,0.24300000,0.05200000,0.97300000,-0.01000000,0.05000000,-0.06000000,-0.08434851,-0.14145876,-0.12094630,3.38000000,-14.19000000,-0.07000000
509,0,0.24800000,0.06000000,0.96900000,0.12000000,-0.12000000,0.07000000,-0.08418247,-0.14162480,-0.12084945,3.38000000,-14.19000000,-0.07000000
510,0,0.25000000,0.06000000,0.96700000,0.02000000,-0.04000000,-0.10000000,-0.08415571,-0.14167833,-0.12098326,3.38000000,-14.19000000,-0.07000000
511,0,0.24700000,0.06300000,0.96900000,0.21000000,-0.22000000,0.01000000,-0.08386940,-0.14197827,-0.12096962,3.38000000,-14.20000000,-0.07000000
512,0,0.25000000,0.05900000,0.96800000,0.11000000,-0.13000000,0.03000000,-0.07787097,-0.14906733,-0.11933369,3.38000000,-14.20000000,-0.07000000
513,0,0.24100000,0.05700000,0.96300000,0.12000000,0.05000000,0.19000000,-0.07770364,-0.14899761,-0.11906876,3.38000000,-14.20000000,-0.06000000
514,0,0.24000000,0.05300000,0.97000000,0.12000000,-0.06000000,-0.08000000,-0.07754441,-0.14907722,-0.11917491,3.38000000,-14.20000000,-0.06000000
515,0,0.24600000,0.05700000,0.97100000,0.04000000,0.02000000,0.06000000,-0.07749160,-0.14905081,-0.11909568,3.38000000,-14.20000000,-0.07000000
516,0,0.24400000,0.05300000,0.96600000,0.15000000,0.05000000,0.12000000,-0.07729521,-0.14898535,-0.11893857,3.38000000,-14.20000000,-0.07000000
517,0,0.24600000,0.05700000,0.97100000,0.06000000,0.02000000,-0.11000000,-0.07721109,-0.14895731,-0.11909279,3.38000000,-14.20000000,-0.07000000
518,0,0.24200000,0.05700000,0.97100000,0.10000000,0.09000000,-0.06000000,-0.07706259,-0.14882366,-0.11918189,3.38000000,-14.20000000,-0.07000000
519,0,0.24400000,0.05500000,0.96700000,0.16000000,0.08000000,-0.05000000,-0.06798485,-0.14428479,-0.12201868,3.38000000,-14.20000000,-0.07000000
520,0,0.25000000,0.05700000,0.97300000,0.01000000,0.02000000,-0.15000000,-0.06797079,-0.14425667,-0.12222963,3.38000000,-14.20000000,-0.07000000
521,0,0.24300000,0.05500000,0.96600000,0.37000000,0.04000000,-0.02000000,-0.06747834,-0.14420343,-0.12225625,3.38000000,-14.20000000,-0.07000000
522,0,0.24500000,0.06000000,0.96900000,-0.16000000,-0.06000000,0.01000000,-0.06768774,-0.14428196,-0.12224316,3.38000000,-14.20000000,-0.07000000
523,0,0.25000000,0.05400000,0.96900000,0.12000000,0.08000000,0.09000000,-0.06752093,-0.14417075,-0.12211805,3.38000000,-14.20000000,-0.07000000
524,0,0.24300000,0.05900000,0.96600000,-0.21000000,-0.05000000,0.17000000,-0.06780829,-0.14423917,-0.12188542,3.38000000,-14.20000000,-0.07000000
525,0,0.24100000,0.05500000,0.96700000,0.12000000,-0.24000000,-0.11000000,-0.06134406,-0.15716764,-0.12781097,3.38000000,-14.20000000,-0.07000000
526,0,0.24500000,0.05300000,0.96500000,-0.12000000,-0.14000000,0.08000000,-0.06152097,-0.15737403,-0.12769304,3.38000000,-14.20000000,-0.07000000
527,0,0.24800000,0.05700000,0.96800000,0.13000000,0.01000000,0.24000000,-0.06133186,-0.15735949,-0.12734391,3.38000000,-14.20000000,-0.07000000
528,0,0.24200000,0.05200000,0.96400000,-0.03000000,0.04000000,-0.18000000,-0.06137392,-0.15730340,-0.12759631,3.38000000,-14.20000000,-0.07000000
529,0,0.24700000,0.05600000,0.96800000,-0.05000000,-0.30000000,0.02000000,-0.06144299,-0.15771778,-0.12756869,3.38000000,-14.20000000,-0.07000000
530,0,0.24600000,0.05900000,0.96800000,-0.24000000,0.10000000,0.05000000,-0.06179989,-0.15756906,-0.12749433,3.38000000,-14.20000000,-0.07000000
531,0,0.25000000,0.06200000,0.97000000,-0.01000000,0.00000000,-0.20000000,-0.06234132,-0.15756906,-0.13832275,3.38000000,-14.20000000,-0.07000000
532,0,0.24300000,0.05600000,0.96700000,-0.13000000,-0.24000000,-0.00000000,-0.06252072,-0.15790028,-0.13832275,3.37000000,-14.20000000,-0.07000000
533,0,0.25000000,0.05600000,0.96900000,-0.29000000,-0.03000000,0.09000000,-0.06290331,-0.15793986,-0.13820402,3.37000000,-14.20000000,-0.07000000
534,0,0.24300000,0.05900000,0.97000000,-0.24000000,-0.21000000,-0.03000000,-0.06320689,-0.15820549,-0.13824196,3.37000000,-14.20000000,-0.07000000
535,0,0.24500000,0.06300000,0.96800000,0.05000000,-0.32000000,-0.09000000,-0.06314383,-0.15860912,-0.13835548,3.37000000,-14.20000000,-0.07000000
536,0,0.23900000,0.05700000,0.96300000,0.16000000,0.05000000,-0.17000000,-0.06292950,-0.15854214,-0.13858321,3.37000000,-14.20000000,-0.07000000
537,0,0.24900000,0.05800000,0.96600000,0.12000000,0.13000000,0.05000000,-0.05644870,-0.15152127,-0.13588287,3.37000000,-14.20000000,-0.07000000
538,0,0.24500000,0.05200000,0.96600000,-0.10000000,0.10000000,0.08000000,-0.05658914,-0.15138084,-0.13577052,3.37000000,-14.20000000,-0.07000000
539,0,0.24500000,0.05700000,0.96800000,0.06000000,0.03000000,0.19000000,-0.05650938,-0.15134096,-0.13551796,3.37000000,-14.20000000,-0.07000000
540,0,0.24500000,0.05100000,0.96800000,0.13000000,-0.21000000,-0.18000000,-0.05634228,-0.15161089,-0.13574933,3.37000000,-14.20000000,-0.07000000
541,0,0.24400000,0.05500000,0.96500000,0.19000000,0.07000000,0.13000000,-0.05610489,-0.15152344,-0.13558691,3.37000000,-14.20000000,-0.07000000
542,0,0.24700000,0.06100000,0.96600000,0.08000000,0.01000000,0.06000000,-0.05599799,-0.15151007,-0.13550674,3.37000000,-14.20000000,-0.07000000
543,0,0.24500000,0.05600000,0.96900000,-0.09000000,0.09000000,0.13000000,-0.06086707,-0.14664100,-0.12847362,3.37000000,-14.20000000,-0.07000000
544,0,0.24700000,0.06000000,0.96900000,0.38000000,-0.04000000,-0.05000000,-0.06034672,-0.14669577,-0.12854209,3.37000000,-14.20000000,-0.07000000
545,0,0.24600000,0.05900000,0.96500000,0.09000000,0.31000000,-0.02000000,-0.06022594,-0.14627977,-0.12856893,3.37000000,-14.20000000,-0.07000000
546,0,0.24300000,0.05800000,0.96500000,0.02000000,0.20000000,0.23000000,-0.06019922,-0.14601253,-0.12826160,3.37000000,-14.20000000,-0.07000000
547,0,0.24300000,0.05300000,0.97100000,0.13000000,0.16000000,-0.12000000,-0.06002589,-0.14579920,-0.12842160,3.37000000,-14.20000000,-0.07000000
548,0,0.24800000,0.05500000,0.96400000,-0.07000000,-0.26000000,0.18000000,-0.06012338,-0.14616130,-0.12817092,3.37000000,-14.20000000,-0.07000000
549,0,0.24700000,0.05900000,0.97000000,-0.14000000,-0.01000000,-0.02000000,-0.06774917,-0.14670600,-0.12926032,3.36000000,-14.20000000,-0.07000000
550,0,0.24400000,0.05800000,0.96700000,0.00000000,-0.12000000,0.26000000,-0.06774917,-0.14686921,-0.12890671,3.36000000,-14.20000000,-0.07000000
551,0,0.24100000,0.06000000,0.96800000,0.10000000,-0.12000000,0.03000000,-0.06761595,-0.14702906,-0.12886674,3.36000000,-14.20000000,-0.06000000
552,0,0.24500000,0.05200000,0.97200000,0.05000000,-0.08000000,0.15000000,-0.06755011,-0.14713442,-0.12866921,3.36000000,-14.20000000,-0.06000000
553,0,0.24600000,0.05800000,0.96900000,0.03000000,-0.05000000,-0.14000000,-0.06750847,-0.14720381,-0.12886352,3.36000000,-14.20000000,-0.06000000
554,0,0.25100000,0.05900000,0.96300000,0.00000000,0.13000000,-0.05000000,-0.06750847,-0.14701755,-0.12893516,3.36000000,-14.20000000,-0.06000000
555,0,0.24500000,0.05400000,0.97000000,-0.05000000,0.12000000,0.09000000,-0.07020147,-0.14055435,-0.12408775,3.36000000,-14.20000000,-0.06000000
556,0,0.24600000,0.06100000,0.96800000,-0.01000000,-0.09000000,0.00000000,-0.07021862,-0.14070870,-0.12408775,3.36000000,-14.20000000,-0.06000000
557,0,0.25200000,0.05600000,0.96600000,0.00000000,0.21000000,0.08000000,-0.07021862,-0.14040737,-0.12397296,3.36000000,-14.20000000,-0.07000000
558,0,0.24400000,0.05600000,0.97000000,0.03000000,-0.00000000,-0.01000000,-0.07017567,-0.14040737,-0.12398728,3.36000000,-14.20000000,-0.06000000
559,0,0.24400000,0.05900000,0.96600000,0.09000000,0.13000000,-0.27000000,-0.07000473,-0.14016046,-0.12450010,3.37000000,-14.20000000,-0.06000000
560,0,0.24400000,0.05900000,0.96500000,-0.02000000,0.19000000,0.12000000,-0.07003538,-0.13986930,-0.12431621,3.37000000,-14.20000000,-0.06000000
561,0,0.24000000,0.05900000,0.97000000,-0.02000000,0.13000000,0.09000000,-0.07108975,-0.13301589,-0.11957154,3.37000000,-14.20000000,-0.06000000
562,0,0.24700000,0.05900000,0.97100000,-0.01000000,0.05000000,0.12000000,-0.07110348,-0.13294723,-0.11940676,3.37000000,-14.20000000,-0.06000000
563,0,0.24700000,0.05600000,0.96700000,0.07000000,-0.14000000,-0.01000000,-0.07101169,-0.13313083,-0.11941988,3.37000000,-14.20000000,-0.06000000
564,0,0.24400000,0.05900000,0.97200000,0.06000000,0.15000000,-0.28000000,-0.07093363,-0.13293569,-0.11978413,3.37000000,-14.20000000,-0.06000000
565,0,0.25000000,0.05700000,0.96600000,-0.10000000,-0.15000000,0.08000000,-0.07106577,-0.13313391,-0.11967842,3.37000000,-14.20000000,-0.06000000
566,0,0.24600000,0.05800000,0.96600000,0.10000000,-0.06000000,0.08000000,-0.07092593,-0.13321781,-0.11956655,3.36000000,-14.20000000,-0.06000000
567,0,0.24300000,0.05600000,0.96700000,0.03000000,-0.12000000,0.10000000,-0.06927475,-0.13982252,-0.11406262,3.37000000,-14.20000000,-0.06000000
568,0,0.24800000,0.05700000,0.97200000,-0.17000000,-0.11000000,-0.01000000,-0.06951277,-0.13997654,-0.11407662,3.36000000,-14.20000000,-0.06000000
569,0,0.24500000,0.05000000,0.96900000,0.16000000,-0.22000000,0.26000000,-0.06929962,-0.14026961,-0.11373026,3.36000000,-14.20000000,-0.06000000
570,0,0.24400000,0.05400000,0.96900000,-0.03000000,-0.15000000,-0.08000000,-0.06933912,-0.14046711,-0.11383559,3.36000000,-14.20000000,-0.06000000
571,0,0.23700000,0.06200000,0.96600000,-0.10000000,0.14000000,-0.07000000,-0.06951859,-0.14021585,-0.11396122,3.36000000,-14.20000000,-0.06000000
572,0,0.25000000,0.06200000,0.96600000,-0.12000000,-0.14000000,0.13000000,-0.06968503,-0.14041003,-0.11378091,3.36000000,-14.20000000,-0.06000000
573,0,0.24500000,0.06100000,0.96600000,0.09000000,-0.09000000,0.26000000,-0.06492712,-0.14516793,-0.10003586,3.36000000,-14.20000000,-0.06000000
574,0,0.24200000,0.06200000,0.96600000,0.08000000,-0.04000000,-0.17000000,-0.06481737,-0.14522281,-0.10026909,3.36000000,-14.20000000,-0.06000000
575,0,0.24600000,0.05600000,0.97000000,-0.12000000,-0.09000000,-0.16000000,-0.06497459,-0.14534073,-0.10047872,3.36000000,-14.20000000,-0.06000000
576,0,0.25000000,0.05500000,0.96200000,-0.18000000,0.16000000,-0.10000000,-0.06520854,-0.14513277,-0.10060870,3.36000000,-14.20000000,-0.06000000
577,0,0.24700000,0.05600000,0.96900000,0.08000000,0.02000000,0.17000000,-0.06510102,-0.14510589,-0.10038020,3.36000000,-14.20000000,-0.06000000
578,0,0.24800000,0.05400000,0.96500000,-0.16000000,-0.18000000,-0.08000000,-0.06531996,-0.14535220,-0.10048968,3.36000000,-14.20000000,-0.06000000
579,0,0.24600000,0.05100000,0.96900000,-0.16000000,0.07000000,0.22000000,-0.07408749,-0.14151641,-0.08843433,3.36000000,-14.20000000,-0.06000000
580,0,0.24700000,0.05400000,0.97200000,-0.08000000,-0.03000000,0.14000000,-0.07419493,-0.14155670,-0.08824629,3.36000000,-14.20000000,-0.06000000
581,0,0.24800000,0.06000000,0.96700000,-0.01000000,-0.10000000,0.12000000,-0.07420793,-0.14168663,-0.08809038,3.36000000,-14.20000000,-0.06000000
582,0,0.24700000,0.05500000,0.96600000,0.19000000,0.02000000,-0.29000000,-0.07394413,-0.14165886,-0.08849302,3.36000000,-14.20000000,-0.07000000
583,0,0.25000000,0.06200000,0.97100000,-0.11000000,0.16000000,-0.11000000,-0.07408865,-0.14144865,-0.08863754,3.36000000,-14.20000000,-0.07000000
584,0,0.24400000,0.05800000,0.97100000,-0.13000000,0.02000000,0.05000000,-0.07426065,-0.14142219,-0.08857138,3.36000000,-14.20000000,-0.07000000
585,0,0.24200000,0.05600000,0.97000000,0.21000000,0.02000000,-0.15000000,-0.06247124,-0.14029939,-0.09699239,3.36000000,-14.20000000,-0.07000000
586,0,0.24300000,0.05500000,0.96900000,0.15000000,-0.27000000,-0.08000000,-0.06225368,-0.14069100,-0.09710842,3.36000000,-14.20000000,-0.06000000
587,0,0.24400000,0.05800000,0.96900000,0.05000000,0.02000000,0.22000000,-0.06199636,-0.14058807,-0.09597622,3.36000000,-14.20000000,-0.06000000
588,0,0.24600000,0.05700000,0.96700000,-0.09000000,-0.08000000,-0.03000000,-0.06213299,-0.14070952,-0.09602177,3.36000000,-14.20000000,-0.06000000
589,0,0.24700000,0.05700000,0.96900000,-0.06000000,-0.08000000,0.01000000,-0.06221831,-0.14082328,-0.09600755,3.36000000,-14.20000000,-0.06000000
590,0,0.24300000,0.05600000,0.96800000,0.08000000,-0.11000000,-0.03000000,-0.06189722,-0.14126478,-0.09612796,3.36000000,-14.20000000,-0.06000000
591,0,0.24500000,0.05300000,0.96800000,0.04000000,-0.08000000,0.15000000,-0.06010096,-0.14485730,-0.08939198,3.36000000,-14.20000000,-0.06000000
592,0,0.24300000,0.05400000,0.96600000,0.09000000,-0.09000000,-0.08000000,-0.05991262,-0.14504565,-0.08955940,3.36000000,-14.20000000,-0.06000000
593,0,0.24200000,0.05900000,0.97100000,-0.19000000,-0.01000000,-0.02000000,-0.06018185,-0.14505982,-0.08958774,3.36000000,-14.20000000,-0.06000000
594,0,0.24500000,0.05300000,0.96600000,0.09000000,0.00000000,-0.21000000,-0.05997023,-0.14505982,-0.09008153,3.36000000,-14.20000000,-0.06000000
595,0,0.24300000,0.05200000,0.96300000,-0.25000000,-0.08000000,0.13000000,-0.06027120,-0.14515613,-0.08992503,3.36000000,-14.20000000,-0.06000000
596,0,0.24700000,0.05700000,0.96900000,-0.00000000,0.20000000,0.14000000,-0.06027120,-0.14484383,-0.08970642,3.36000000,-14.21000000,-0.06000000
597,0,0.24400000,0.05600000,0.96600000,0.13000000,0.10000000,-0.17000000,-0.05345232,-0.13959853,-0.09862341,3.36000000,-14.21000000,-0.06000000
598,0,0.24600000,0.05800000,0.96900000,0.09000000,-0.10000000,-0.10000000,-0.05326470,-0.13980699,-0.09883187,3.36000000,-14.21000000,-0.06000000
599,0,0.24500000,0.05500000,0.97100000,-0.17000000,-0.12000000,-0.02000000,-0.05354435,-0.14000439,-0.09886477,3.36000000,-14.21000000,-0.06000000
600,0,0.24900000,0.05900000,0.96800000,0.00000000,0.24000000,-0.02000000,-0.05354435,-0.13957498,-0.09890055,3.36000000,-14.20000000,-0.06000000
601,0,0.24100000,0.05500000,0.96700000,-0.14000000,-0.09000000,0.08000000,-0.05390759,-0.13980849,-0.09869299,3.36000000,-14.20000000,-0.07000000
602,0,0.24800000,0.05800000,0.97100000,-0.03000000,-0.03000000,0.15000000,-0.05397636,-0.13987727,-0.09834911,3.36000000,-14.20000000,-0.06000000
603,0,0.24700000,0.06000000,0.97000000,-0.16000000,-0.13000000,-0.09000000,-0.06203298,-0.14642327,-0.10288096,3.36000000,-14.21000000,-0.06000000
604,0,0.24600000,0.05800000,0.96800000,0.15000000,0.11000000,-0.20000000,-0.06186502,-0.14630010,-0.10310490,3.36000000,-14.20000000,-0.07000000
605,0,0.25000000,0.05800000,0.96900000,-0.02000000,0.13000000,0.01000000,-0.06188643,-0.14616096,-0.10309420,3.36000000,-14.21000000,-0.07000000
606,0,0.24400000,0.05700000,0.96500000,0.22000000,0.09000000,-0.17000000,-0.06164429,-0.14606190,-0.10328131,3.36000000,-14.20000000,-0.07000000
607,0,0.24800000,0.05700000,0.96400000,0.13000000,0.00000000,0.01000000,-0.06151165,-0.14606190,-0.10327111,3.36000000,-14.20000000,-0.07000000
608,0,0.24700000,0.05700000,0.97100000,-0.06000000,-0.02000000,0.14000000,-0.06157653,-0.14608352,-0.10311972,3.36000000,-14.20000000,-0.07000000
609,0,0.24900000,0.05900000,0.96700000,0.05000000,0.10000000,-0.05000000,-0.05881428,-0.14055902,-0.10588197,3.36000000,-14.21000000,-0.07000000
610,0,0.24400000,0.05900000,0.97000000,-0.22000000,-0.01000000,0.01000000,-0.05904425,-0.14056947,-0.10587152,3.36000000,-14.20000000,-0.07000000
611,0,0.24300000,0.05400000,0.96300000,0.20000000,0.15000000,0.06000000,-0.05884439,-0.14041958,-0.10581156,3.36000000,-14.20000000,-0.07000000
612,0,0.23900000,0.05700000,0.96600000,-0.11000000,0.21000000,0.28000000,-0.05895694,-0.14020471,-0.10552507,3.36000000,-14.20000000,-0.07000000
613,0,0.24700000,0.06100000,0.96700000,0.13000000,-0.03000000,-0.02000000,-0.05882374,-0.14023545,-0.10554557,3.36000000,-14.21000000,-0.07000000
614,0,0.24500000,0.06100000,0.96900000,0.04000000,-0.07000000,0.08000000,-0.05878325,-0.14030631,-0.10546459,3.36000000,-14.21000000,-0.07000000
615,0,0.23700000,0.05300000,0.97000000,0.11000000,-0.00000000,0.03000000,-0.05258228,-0.14030631,-0.10377342,3.36000000,-14.21000000,-0.06000000
616,0,0.24300000,0.05900000,0.97200000,-0.05000000,-0.02000000,-0.02000000,-0.05263482,-0.14032732,-0.10379443,3.36000000,-14.20000000,-0.07000000
617,0,0.25000000,0.06000000,0.96700000,-0.03000000,0.07000000,-0.05000000,-0.05266539,-0.14025598,-0.10384539,3.37000000,-14.20000000,-0.07000000
618,0,0.24200000,0.06000000,0.96600000,-0.15000000,0.10000000,0.08000000,-0.05281768,-0.14015446,-0.10376416,3.37000000,-14.20000000,-0.07000000
619,0,0.23900000,0.06000000,0.96500000,0.00000000,-0.02000000,0.09000000,-0.05281768,-0.14017447,-0.10367412,3.37000000,-14.20000000,-0.07000000
620,0,0.24200000,0.06200000,0.96500000,-0.01000000,0.11000000,-0.04000000,-0.05282777,-0.14006349,-0.10371447,3.37000000,-14.20000000,-0.07000000
621,0,0.24700000,0.05700000,0.96600000,0.09000000,0.29000000,-0.10000000,-0.04783739,-0.12398339,-0.10925934,3.37000000,-14.20000000,-0.07000000
622,0,0.24400000,0.05100000,0.96300000,-0.25000000,-0.07000000,0.17000000,-0.04810361,-0.12405793,-0.10907831,3.37000000,-14.20000000,-0.06000000
623,0,0.24500000,0.05800000,0.96800000,0.06000000,-0.02000000,0.07000000,-0.04804188,-0.12407851,-0.10900629,3.37000000,-14.20000000,-0.06000000
624,0,0.24300000,0.05800000,0.97200000,0.09000000,-0.07000000,0.06000000,-0.04794864,-0.12415103,-0.10894412,3.37000000,-14.20000000,-0.06000000
625,0,0.24800000,0.05700000,0.96600000,-0.13000000,-0.05000000,0.09000000,-0.04808016,-0.12420161,-0.10885307,3.37000000,-14.20000000,-0.06000000
626,0,0.24600000,0.05800000,0.96700000,-0.02000000,0.14000000,-0.07000000,-0.04810033,-0.12406044,-0.10892366,3.37000000,-14.20000000,-0.07000000
627,0,0.24700000,0.06100000,0.96800000,-0.13000000,0.11000000,0.07000000,-0.05531029,-0.11795970,-0.10504137,3.37000000,-14.20000000,-0.07000000
628,0,0.25100000,0.05800000,0.96800000,0.28000000,0.19000000,-0.20000000,-0.05501573,-0.11775982,-0.10525177,3.37000000,-14.20000000,-0.07000000
629,0,0.24800000,0.05900000,0.96700000,0.11000000,-0.14000000,0.30000000,-0.05490408,-0.11790193,-0.10494725,3.37000000,-14.20000000,-0.06000000
630,0,0.24600000,0.05600000,0.96800000,-0.00000000,-0.10000000,0.26000000,-0.05490408,-0.11800286,-0.10468483,3.37000000,-14.20000000,-0.06000000
631,0,0.24600000,0.05600000,0.96700000,-0.08000000,0.06000000,-0.02000000,-0.05498389,-0.11794300,-0.10470478,3.37000000,-14.20000000,-0.06000000
632,0,0.24800000,0.06100000,0.96600000,-0.03000000,-0.09000000,-0.15000000,-0.05501375,-0.11803258,-0.10485407,3.37000000,-14.20000000,-0.06000000
633,0,0.24900000,0.05500000,0.96500000,-0.08000000,0.05000000,0.36000000,-0.05952973,-0.11521009,-0.08453216,3.37000000,-14.20000000,-0.06000000
634,0,0.24300000,0.05900000,0.96800000,-0.09000000,-0.14000000,-0.08000000,-0.05962595,-0.11535977,-0.08461769,3.37000000,-14.20000000,-0.06000000
635,0,0.24400000,0.06200000,0.96700000,0.09000000,0.13000000,-0.02000000,-0.05953483,-0.11522816,-0.08463794,3.37000000,-14.20000000,-0.06000000
636,0,0.24500000,0.05500000,0.96500000,0.16000000,0.26000000,0.02000000,-0.05937441,-0.11496747,-0.08461789,3.37000000,-14.20000000,-0.06000000
637,0,0.24600000,0.05700000,0.96600000,0.07000000,-0.08000000,0.02000000,-0.05930367,-0.11504831,-0.08459768,3.37000000,-14.20000000,-0.06000000
638,0,0.25000000,0.05700000,0.96600000,-0.02000000,0.14000000,0.24000000,-0.05932380,-0.11490744,-0.08435618,3.37000000,-14.20000000,-0.06000000
639,0,0.24500000,0.05700000,0.96400000,0.12000000,0.23000000,0.21000000,-0.05230873,-0.10146189,-0.07207981,3.37000000,-14.20000000,-0.06000000
640,0,0.24300000,0.05500000,0.96600000,-0.15000000,0.08000000,-0.01000000,-0.05246682,-0.10137758,-0.07209035,3.37000000,-14.20000000,-0.06000000
641,0,0.24600000,0.05400000,0.96600000,-0.14000000,-0.05000000,0.07000000,-0.05260979,-0.10142864,-0.07201886,3.37000000,-14.20000000,-0.06000000
642,0,0.24400000,0.05600000,0.96700000,0.07000000,0.20000000,-0.06000000,-0.05253620,-0.10121838,-0.07208194,3.37000000,-14.20000000,-0.06000000
643,0,0.24600000,0.06000000,0.96900000,-0.01000000,-0.12000000,-0.25000000,-0.05254679,-0.10134545,-0.07234667,3.37000000,-14.20000000,-0.06000000
644,0,0.24300000,0.06100000,0.97200000,-0.02000000,-0.06000000,-0.03000000,-0.05256701,-0.10140612,-0.07237701,3.37000000,-14.20000000,-0.06000000
645,0,0.24400000,0.05600000,0.96700000,0.32000000,0.06000000,0.05000000,-0.05223907,-0.10134463,-0.07232577,3.37000000,-14.20000000,-0.06000000
646,0,0.24400000,0.06000000,0.97100000,0.14000000,0.09000000,0.00000000,-0.04449425,-0.09636582,-0.07232577,3.37000000,-14.20000000,-0.06000000
647,0,0.24600000,0.05800000,0.97000000,-0.02000000,0.10000000,-0.08000000,-0.04451554,-0.09625938,-0.07241092,3.37000000,-14.20000000,-0.06000000
648,0,0.24700000,0.06000000,0.96600000,0.03000000,0.10000000,0.09000000,-0.04448518,-0.09615819,-0.07231984,3.37000000,-14.20000000,-0.06000000
649,0,0.24300000,0.05300000,0.96900000,0.11000000,-0.02000000,-0.29000000,-0.04437597,-0.09617805,-0.07260778,3.37000000,-14.20000000,-0.06000000
650,0,0.24500000,0.06000000,0.97200000,-0.03000000,0.04000000,0.05000000,-0.04440588,-0.09613816,-0.07255792,3.37000000,-14.20000000,-0.06000000
651,0,0.24600000,0.06000000,0.96500000,0.15000000,0.07000000,-0.03000000,-0.04425573,-0.09606809,-0.07258795,3.37000000,-14.20000000,-0.06000000
652,0,0.24400000,0.05400000,0.96600000,0.03000000,-0.09000000,0.03000000,-0.04258397,-0.10108338,-0.07091618,3.37000000,-14.20000000,-0.06000000
653,0,0.24300000,0.05600000,0.96900000,0.11000000,-0.11000000,0.05000000,-0.04246303,-0.10120432,-0.07086121,3.37000000,-14.20000000,-0.06000000
654,0,0.24600000,0.05600000,0.96400000,0.18000000,0.13000000,0.28000000,-0.04228105,-0.10107289,-0.07057813,3.37000000,-14.20000000,-0.06000000
655,0,0.24600000,0.05600000,0.96400000,0.43000000,-0.01000000,-0.05000000,-0.04178132,-0.10108451,-0.07063624,3.37000000,-14.20000000,-0.06000000
656,0,0.24600000,0.05800000,0.96500000,0.30000000,-0.15000000,0.09000000,-0.04146958,-0.10124038,-0.07054272,3.37000000,-14.20000000,-0.06000000
657,0,0.24200000,0.06200000,0.96700000,-0.14000000,0.05000000,-0.06000000,-0.04161216,-0.10118946,-0.07060382,3.37000000,-14.20000000,-0.06000000
658,0,0.24700000,0.05500000,0.96600000,-0.05000000,0.04000000,-0.05000000,-0.04441313,-0.09894868,-0.07340479,3.37000000,-14.20000000,-0.06000000
659,0,0.24800000,0.05400000,0.96400000,-0.25000000,-0.09000000,0.15000000,-0.04467565,-0.09904319,-0.07324728,3.37000000,-14.20000000,-0.06000000
660,0,0.24300000,0.05800000,0.96800000,0.00000000,-0.11000000,-0.01000000,-0.04467565,-0.09915375,-0.07325733,3.37000000,-14.20000000,-0.06000000
661,0,0.24000000,0.05700000,0.96600000,-0.01000000,0.28000000,0.12000000,-0.04468569,-0.09887260,-0.07313684,3.37000000,-14.20000000,-0.06000000
662,0,0.24100000,0.05600000,0.96700000,-0.00000000,-0.12000000,0.15000000,-0.04468569,-0.09899298,-0.07298637,3.37000000,-14.20000000,-0.06000000
663,0,0.24900000,0.05400000,0.96900000,-0.12000000,-0.05000000,0.09000000,-0.04482155,-0.09904959,-0.07288448,3.37000000,-14.20000000,-0.06000000
664,0,0.24700000,0.05400000,0.97100000,0.08000000,0.01000000,0.00000000,-0.04039245,-0.09849595,-0.07288448,3.37000000,-14.20000000,-0.06000000
665,0,0.24300000,0.05700000,0.97000000,-0.13000000,0.04000000,0.21000000,-0.04052899,-0.09845393,-0.07266391,3.37000000,-14.20000000,-0.06000000
666,0,0.25100000,0.05500000,0.96600000,-0.03000000,-0.02000000,0.01000000,-0.04055899,-0.09847393,-0.07265391,3.37000000,-14.20000000,-0.05000000
667,0,0.24600000,0.05700000,0.97200000,-0.08000000,-0.12000000,0.04000000,-0.04063868,-0.09859348,-0.07261406,3.37000000,-14.20000000,-0.05000000
668,0,0.24900000,0.05600000,0.96700000,-0.22000000,-0.02000000,0.12000000,-0.04087196,-0.09861468,-0.07248682,3.37000000,-14.20000000,-0.05000000
669,0,0.24800000,0.05600000,0.96500000,0.01000000,-0.18000000,-0.10000000,-0.04085978,-0.09883387,-0.07260859,3.37000000,-14.20000000,-0.05000000
670,0,0.24700000,0.06300000,0.96700000,-0.06000000,0.04000000,-0.11000000,-0.04424075,-0.09657989,-0.07880702,3.37000000,-14.20000000,-0.06000000
671,0,0.24200000,0.05400000,0.96700000,-0.15000000,-0.15000000,-0.10000000,-0.04442984,-0.09676899,-0.07893308,3.37000000,-14.20000000,-0.05000000
672,0,0.24600000,0.05700000,0.96500000,-0.06000000,-0.05000000,-0.07000000,-0.04449432,-0.09682272,-0.07900831,3.37000000,-14.20000000,-0.05000000
673,0,0.24200000,0.05700000,0.96700000,-0.06000000,0.19000000,0.06000000,-0.04455598,-0.09662746,-0.07894665,3.37000000,-14.20000000,-0.05000000
674,0,0.24600000,0.05800000,0.96800000,0.01000000,0.02000000,-0.08000000,-0.04454562,-0.09660675,-0.07902949,3.37000000,-14.20000000,-0.05000000
675,0,0.24600000,0.05500000,0.96700000,-0.12000000,0.07000000,0.04000000,-0.04466637,-0.09653631,-0.07898924,3.37000000,-14.20000000,-0.06000000
676,0,0.24600000,0.05700000,0.96700000,0.09000000,0.01000000,0.06000000,-0.03971346,-0.09598599,-0.07568730,3.37000000,-14.20000000,-0.05000000
677,0,0.24400000,0.05800000,0.96900000,-0.26000000,0.03000000,0.08000000,-0.03998673,-0.09595446,-0.07560322,3.37000000,-14.20000000,-0.05000000
678,0,0.24300000,0.06500000,0.97000000,-0.02000000,-0.10000000,0.08000000,-0.04000700,-0.09605580,-0.07552215,3.37000000,-14.20000000,-0.05000000
679,0,0.24700000,0.05700000,0.97100000,0.33000000,0.07000000,0.15000000,-0.03967384,-0.09598513,-0.07537071,3.37000000,-14.20000000,-0.05000000
680,0,0.24900000,0.05900000,0.97000000,-0.10000000,-0.18000000,0.16000000,-0.03977544,-0.09616801,-0.07520815,3.37000000,-14.21000000,-0.05000000
681,0,0.24500000,0.06100000,0.96800000,0.20000000,0.22000000,-0.09000000,-0.03957334,-0.09594569,-0.07529910,3.37000000,-14.21000000,-0.05000000
682,0,0.24500000,0.05300000,0.96900000,-0.03000000,-0.06000000,-0.13000000,-0.04124076,-0.09928054,-0.08252459,3.37000000,-14.21000000,-0.06000000
683,0,0.24300000,0.05500000,0.96500000,0.08000000,0.09000000,0.01000000,-0.04115687,-0.09918616,-0.08251411,3.37000000,-14.21000000,-0.06000000
684,0,0.24100000,0.05500000,0.96500000,0.17000000,0.13000000,0.16000000,-0.04098694,-0.09905621,-0.08235418,3.37000000,-14.21000000,-0.06000000
685,0,0.24800000,0.05700000,0.96800000,0.22000000,0.19000000,0.15000000,-0.04076678,-0.09886607,-0.08220407,3.37000000,-14.20000000,-0.05000000
686,0,0.24400000,0.05700000,0.96800000,0.08000000,-0.01000000,0.17000000,-0.04068472,-0.09887633,-0.08202968,3.37000000,-14.20000000,-0.05000000
687,0,0.24500000,0.05900000,0.97100000,-0.03000000,-0.05000000,-0.03000000,-0.04071542,-0.09892750,-0.08206038,3.37000000,-14.21000000,-0.05000000
688,0,0.24700000,0.05300000,0.96500000,-0.07000000,-0.42000000,0.08000000,-0.04465912,-0.12258973,-0.07755329,3.37000000,-14.21000000,-0.05000000
689,0,0.24500000,0.05800000,0.96800000,-0.03000000,-0.23000000,-0.39000000,-0.04469050,-0.12283027,-0.07796116,3.37000000,-14.21000000,-0.05000000
690,0,0.24700000,0.05500000,0.96400000,-0.07000000,-0.07000000,0.08000000,-0.04476042,-0.12290019,-0.07788125,3.37000000,-14.21000000,-0.05000000
691,0,0.24800000,0.05700000,0.96900000,-0.17000000,-0.03000000,-0.12000000,-0.04493837,-0.12293159,-0.07800686,3.37000000,-14.21000000,-0.05000000
692,0,0.24400000,0.05700000,0.96400000,-0.09000000,0.19000000,0.25000000,-0.04503045,-0.12273719,-0.07775107,3.37000000,-14.21000000,-0.05000000
693,0,0.24400000,0.06100000,0.96800000,-0.08000000,0.18000000,0.07000000,-0.04511740,-0.12254156,-0.07767500,3.37000000,-14.20000000,-0.06000000
694,0,0.24400000,0.05700000,0.97200000,-0.10000000,-0.14000000,0.30000000,-0.05065322,-0.13029172,-0.06106751,3.37000000,-14.20000000,-0.06000000
695,0,0.24400000,0.05300000,0.96800000,-0.11000000,-0.12000000,-0.01000000,-0.05076842,-0.13041739,-0.06107799,3.37000000,-14.20000000,-0.06000000
696,0,0.24800000,0.05800000,0.96300000,-0.09000000,-0.05000000,0.00000000,-0.05085902,-0.13046773,-0.06107799,3.37000000,-14.20000000,-0.06000000
697,0,0.24400000,0.05600000,0.96700000,-0.01000000,0.21000000,-0.07000000,-0.05086918,-0.13025452,-0.06114906,3.37000000,-14.21000000,-0.06000000
698,0,0.24400000,0.05600000,0.96800000,-0.01000000,-0.05000000,-0.05000000,-0.05087925,-0.13030487,-0.06119941,3.37000000,-14.21000000,-0.06000000
699,0,0.24500000,0.05700000,0.96500000,-0.22000000,0.24000000,-0.13000000,-0.05109931,-0.13006481,-0.06132945,3.37000000,-14.21000000,-0.06000000
700,0,0.24500000,0.05600000,0.97000000,0.05000000,-0.11000000,-0.35000000,-0.04831996,-0.13617937,-0.08078487,3.37000000,-14.20000000,-0.06000000
701,0,0.24900000,0.05300000,0.96600000,0.09000000,-0.27000000,-0.09000000,-0.04822155,-0.13647461,-0.08088328,3.37000000,-14.20000000,-0.06000000
702,0,0.24900000,0.05800000,0.96500000,0.24000000,0.02000000,-0.19000000,-0.04797753,-0.13645428,-0.08107646,3.37000000,-14.21000000,-0.06000000
703,0,0.24600000,0.05600000,0.97100000,-0.09000000,-0.01000000,-0.11000000,-0.04806861,-0.13646440,-0.08118778,3.37000000,-14.21000000,-0.06000000
704,0,0.24200000,0.05200000,0.97200000,-0.03000000,0.04000000,-0.12000000,-0.04810011,-0.13642239,-0.08131379,3.37000000,-14.20000000,-0.06000000
705,0,0.24200000,0.05800000,0.96700000,0.19000000,0.05000000,0.02000000,-0.04790739,-0.13637168,-0.08129350,3.37000000,-14.20000000,-0.06000000
706,0,0.24500000,0.05500000,0.96400000,0.00000000,-0.05000000,-0.05000000,-0.04790739,-0.13918531,-0.08410713,3.37000000,-14.20000000,-0.06000000
707,0,0.24500000,0.05400000,0.96600000,-0.01000000,-0.18000000,-0.02000000,-0.04791784,-0.13937338,-0.08412803,3.37000000,-14.20000000,-0.06000000
708,0,0.24500000,0.05400000,0.96900000,-0.01000000,0.15000000,-0.11000000,-0.04792799,-0.13922105,-0.08423974,3.37000000,-14.20000000,-0.06000000
709,0,0.23900000,0.05600000,0.96900000,0.12000000,-0.15000000,0.00000000,-0.04780627,-0.13937320,-0.08423974,3.37000000,-14.20000000,-0.06000000
710,0,0.24400000,0.05300000,0.96500000,0.02000000,-0.16000000,0.01000000,-0.04778629,-0.13953309,-0.08422974,3.37000000,-14.20000000,-0.06000000
711,0,0.24600000,0.06000000,0.97000000,0.03000000,-0.07000000,0.06000000,-0.04775578,-0.13960426,-0.08416874,3.37000000,-14.20000000,-0.06000000
712,0,0.24800000,0.05500000,0.96700000,-0.06000000,-0.07000000,0.19000000,-0.05108352,-0.14348662,-0.07363092,3.37000000,-14.20000000,-0.06000000
713,0,0.24900000,0.05600000,0.96500000,0.11000000,0.06000000,-0.03000000,-0.05096835,-0.14342380,-0.07366233,3.37000000,-14.20000000,-0.06000000
714,0,0.24500000,0.05500000,0.96500000,0.04000000,0.10000000,-0.28000000,-0.05092782,-0.14332249,-0.07394601,3.37000000,-14.20000000,-0.06000000
715,0,0.24900000,0.05700000,0.96500000,-0.04000000,-0.02000000,0.08000000,-0.05096827,-0.14334271,-0.07386511,3.37000000,-14.20000000,-0.06000000
716,0,0.24400000,0.06100000,0.96400000,0.24000000,-0.14000000,-0.25000000,-0.05072975,-0.14348185,-0.07411357,3.37000000,-14.20000000,-0.06000000
717,0,0.24900000,0.05800000,0.96700000,-0.13000000,0.01000000,0.11000000,-0.05085976,-0.14347185,-0.07400356,3.37000000,-14.21000000,-0.06000000
718,0,0.25000000,0.06000000,0.96800000,-0.06000000,0.22000000,-0.04000000,-0.05420730,-0.13119751,-0.07623526,3.37000000,-14.20000000,-0.06000000
719,0,0.24000000,0.05700000,0.97000000,-0.03000000,0.15000000,-0.22000000,-0.05424154,-0.13102630,-0.07648637,3.37000000,-14.20000000,-0.06000000
720,0,0.25000000,0.06100000,0.97300000,0.00000000,0.08000000,0.13000000,-0.05424154,-0.13093972,-0.07634567,3.37000000,-14.20000000,-0.06000000
721,0,0.23900000,0.05800000,0.96700000,-0.02000000,0.05000000,-0.06000000,-0.05426912,-0.13087078,-0.07642839,3.37000000,-14.20000000,-0.06000000
722,0,0.24500000,0.05500000,0.96700000,-0.20000000,0.23000000,0.04000000,-0.05447938,-0.13062899,-0.07638634,3.37000000,-14.20000000,-0.06000000
723,0,0.24700000,0.05900000,0.96400000,0.15000000,-0.00000000,0.03000000,-0.05432326,-0.13062899,-0.07635512,3.37000000,-14.20000000,-0.06000000
724,0,0.24500000,0.05600000,0.96700000,0.05000000,-0.04000000,0.05000000,-0.05154495,-0.13285163,-0.07357681,3.37000000,-14.20000000,-0.06000000
725,0,0.24800000,0.06000000,0.96400000,-0.20000000,0.05000000,-0.10000000,-0.05176121,-0.13279757,-0.07368494,3.37000000,-14.20000000,-0.06000000
726,0,0.24500000,0.05800000,0.97000000,0.09000000,-0.04000000,-0.02000000,-0.05166540,-0.13284015,-0.07370623,3.37000000,-14.20000000,-0.06000000
727,0,0.24500000,0.05300000,0.96800000,0.17000000,-0.17000000,0.26000000,-0.05149304,-0.13301251,-0.07344263,3.37000000,-14.20000000,-0.06000000
728,0,0.23800000,0.05700000,0.96700000,-0.03000000,-0.11000000,-0.01000000,-0.05152320,-0.13312312,-0.07345269,3.37000000,-14.20000000,-0.06000000
729,0,0.24800000,0.05800000,0.96900000,-0.00000000,-0.06000000,0.00000000,-0.05152320,-0.13318685,-0.07345269,3.37000000,-14.20000000,-0.06000000
730,0,0.24400000,0.05800000,0.96800000,0.07000000,-0.12000000,0.05000000,-0.04765191,-0.13982335,-0.07068748,3.37000000,-14.20000000,-0.06000000
731,0,0.24700000,0.05300000,0.96600000,-0.02000000,0.17000000,-0.04000000,-0.04767292,-0.13964479,-0.07072949,3.37000000,-14.20000000,-0.06000000
732,0,0.24800000,0.05500000,0.96800000,-0.06000000,-0.07000000,0.03000000,-0.04773321,-0.13971513,-0.07069935,3.37000000,-14.20000000,-0.06000000
733,0,0.24100000,0.05600000,0.96600000,0.10000000,-0.10000000,-0.24000000,-0.04763278,-0.13981556,-0.07094039,3.37000000,-14.20000000,-0.06000000
734,0,0.24400000,0.06100000,0.97000000,0.09000000,0.17000000,0.01000000,-0.04754372,-0.13964734,-0.07093049,3.37000000,-14.20000000,-0.06000000
735,0,0.24600000,0.06000000,0.96900000,0.05000000,0.16000000,-0.13000000,-0.04749342,-0.13948638,-0.07106127,3.37000000,-14.20000000,-0.07000000
736,0,0.24600000,0.05700000,0.96800000,-0.10000000,-0.25000000,0.01000000,-0.05305814,-0.15339819,-0.07050480,3.37000000,-14.21000000,-0.07000000
737,0,0.25200000,0.05600000,0.96700000,-0.07000000,-0.33000000,0.03000000,-0.05313392,-0.15375542,-0.07047232,3.37000000,-14.21000000,-0.07000000
738,0,0.24700000,0.05800000,0.96300000,-0.13000000,-0.08000000,0.08000000,-0.05326600,-0.15383670,-0.07039104,3.37000000,-14.21000000,-0.07000000
739,0,0.24800000,0.05600000,0.96800000,-0.08000000,0.04000000,-0.10000000,-0.05334657,-0.15379642,-0.07049176,3.37000000,-14.21000000,-0.07000000
740,0,0.24500000,0.05700000,0.97200000,0.09000000,-0.06000000,0.09000000,-0.05325372,-0.15385832,-0.07039890,3.37000000,-14.21000000,-0.07000000
741,0,0.24900000,0.05500000,0.96300000,-0.01000000,-0.02000000,0.04000000,-0.05326393,-0.15387875,-0.07035803,3.37000000,-14.21000000,-0.07000000
742,0,0.24500000,0.05800000,0.96600000,-0.09000000,0.03000000,-0.11000000,-0.05832720,-0.15219100,-0.07654647,3.37000000,-14.21000000,-0.07000000
743,0,0.24300000,0.05800000,0.97000000,0.03000000,-0.11000000,-0.05000000,-0.05829451,-0.15231089,-0.07660097,3.37000000,-14.21000000,-0.07000000
744,0,0.24900000,0.06100000,0.96900000,0.05000000,-0.07000000,0.20000000,-0.05824392,-0.15238171,-0.07639863,3.37000000,-14.21000000,-0.07000000
745,0,0.24700000,0.05700000,0.96500000,0.19000000,0.32000000,-0.17000000,-0.05805310,-0.15206033,-0.07656936,3.37000000,-14.21000000,-0.07000000
746,0,0.24500000,0.05800000,0.96300000,0.08000000,0.11000000,0.01000000,-0.05797005,-0.15194613,-0.07655898,3.37000000,-14.21000000,-0.07000000
747,0,0.24600000,0.05900000,0.97100000,-0.22000000,0.09000000,-0.04000000,-0.05819372,-0.15185462,-0.07659965,3.37000000,-14.21000000,-0.07000000
748,0,0.24700000,0.05300000,0.96800000,-0.06000000,0.13000000,-0.21000000,-0.06152126,-0.14464497,-0.08824601,3.37000000,-14.21000000,-0.07000000
749,0,0.24800000,0.05900000,0.96800000,0.15000000,0.05000000,0.14000000,-0.06135920,-0.14459095,-0.08809476,3.37000000,-14.21000000,-0.07000000
750,0,0.24400000,0.05700000,0.97000000,0.13000000,0.07000000,0.06000000,-0.06122693,-0.14451973,-0.08803372,3.37000000,-14.21000000,-0.07000000
751,0,0.24700000,0.05700000,0.96700000,-0.20000000,0.23000000,0.09000000,-0.06142618,-0.14429060,-0.08794406,3.37000000,-14.20000000,-0.07000000
752,0,0.24600000,0.05800000,0.96600000,0.20000000,0.02000000,-0.17000000,-0.06122436,-0.14427042,-0.08811560,3.37000000,-14.20000000,-0.07000000
753,0,0.25000000,0.05700000,0.96500000,0.16000000,-0.11000000,0.08000000,-0.06106245,-0.14438173,-0.08803464,3.37000000,-14.20000000,-0.07000000
754,0,0.24600000,0.05700000,0.96100000,0.06000000,0.04000000,-0.24000000,-0.05772530,-0.14215697,-0.10138323,3.37000000,-14.20000000,-0.07000000
755,0,0.24600000,0.05700000,0.96700000,-0.09000000,0.20000000,-0.06000000,-0.05781947,-0.14194771,-0.10144601,3.37000000,-14.20000000,-0.07000000
756,0,0.24400000,0.05200000,0.96500000,-0.23000000,-0.17000000,-0.23000000,-0.05804920,-0.14211751,-0.10167574,3.37000000,-14.20000000,-0.07000000
757,0,0.24800000,0.05700000,0.96900000,0.25000000,-0.06000000,-0.01000000,-0.05779854,-0.14217767,-0.10168577,3.37000000,-14.20000000,-0.07000000
758,0,0.24900000,0.05700000,0.96800000,0.08000000,-0.04000000,0.01000000,-0.05771617,-0.14221885,-0.10167547,3.37000000,-14.21000000,-0.07000000
759,0,0.24700000,0.05600000,0.97100000,0.08000000,-0.20000000,-0.12000000,-0.05763594,-0.14241943,-0.10179582,3.37000000,-14.21000000,-0.07000000
760,0,0.24300000,0.05400000,0.96700000,-0.08000000,-0.06000000,0.11000000,-0.06213706,-0.14579527,-0.09560677,3.37000000,-14.21000000,-0.07000000
761,0,0.24500000,0.05400000,0.96800000,-0.13000000,-0.06000000,0.22000000,-0.06227311,-0.14585807,-0.09537654,3.37000000,-14.21000000,-0.07000000
762,0,0.24700000,0.05500000,0.97000000,-0.01000000,-0.06000000,0.09000000,-0.06228315,-0.14591835,-0.09528611,3.37000000,-14.21000000,-0.07000000
763,0,0.24900000,0.05500000,0.96800000,-0.07000000,0.22000000,-0.02000000,-0.06235661,-0.14568749,-0.09530710,3.37000000,-14.21000000,-0.07000000
764,0,0.24700000,0.04900000,0.96500000,0.15000000,0.03000000,-0.29000000,-0.06220382,-0.14565693,-0.09560250,3.37000000,-14.21000000,-0.07000000
765,0,0.24200000,0.06100000,0.96900000,0.17000000,0.05000000,-0.13000000,-0.06203268,-0.14560659,-0.09573337,3.38000000,-14.21000000,-0.07000000
766,0,0.24100000,0.06000000,0.96700000,-0.03000000,-0.08000000,-0.10000000,-0.06206266,-0.14568656,-0.09583332,3.38000000,-14.20000000,-0.07000000
767,0,0.24700000,0.05500000,0.96400000,0.04000000,-0.02000000,-0.14000000,-0.05972229,-0.14685675,-0.10402465,3.38000000,-14.21000000,-0.07000000
768,0,0.24700000,0.05400000,0.96900000,0.06000000,0.10000000,0.10000000,-0.05965977,-0.14675255,-0.10392045,3.38000000,-14.21000000,-0.07000000
769,0,0.24900000,0.05400000,0.97100000,0.19000000,0.21000000,0.06000000,-0.05947094,-0.14654384,-0.10386082,3.38000000,-14.20000000,-0.07000000
770,0,0.24900000,0.05800000,0.97100000,-0.11000000,0.10000000,0.01000000,-0.05959450,-0.14643152,-0.10384959,3.38000000,-14.20000000,-0.07000000
771,0,0.24400000,0.05300000,0.96700000,-0.13000000,-0.02000000,-0.24000000,-0.05973780,-0.14645356,-0.10411414,3.38000000,-14.20000000,-0.07000000
772,0,0.24600000,0.05600000,0.96800000,0.26000000,0.24000000,0.07000000,-0.05944574,-0.14618397,-0.10403551,3.38000000,-14.20000000,-0.07000000
773,0,0.24200000,0.05500000,0.97200000,0.11000000,0.10000000,0.23000000,-0.05337965,-0.14066934,-0.09135186,3.38000000,-14.20000000,-0.07000000
774,0,0.24200000,0.06200000,0.96800000,0.10000000,0.04000000,0.08000000,-0.05327483,-0.14062741,-0.09126800,3.38000000,-14.20000000,-0.07000000
775,0,0.24800000,0.05600000,0.96900000,0.07000000,0.04000000,-0.06000000,-0.05320498,-0.14058750,-0.09132787,3.38000000,-14.20000000,-0.07000000
776,0,0.24300000,0.06000000,0.96900000,0.04000000,-0.35000000,-0.08000000,-0.05316386,-0.14094727,-0.09141011,3.38000000,-14.20000000,-0.07000000
777,0,0.23900000,0.05800000,0.97300000,0.07000000,0.06000000,-0.02000000,-0.05309152,-0.14088527,-0.09143078,3.38000000,-14.20000000,-0.07000000
778,0,0.24300000,0.05300000,0.96600000,0.16000000,-0.30000000,-0.21000000,-0.05292541,-0.14119672,-0.09164879,3.38000000,-14.20000000,-0.07000000
779,0,0.24800000,0.05600000,0.96900000,-0.07000000,-0.11000000,0.19000000,-0.05686900,-0.14739379,-0.08094477,3.38000000,-14.20000000,-0.07000000
780,0,0.24300000,0.05700000,0.97200000,0.05000000,-0.09000000,-0.10000000,-0.05681681,-0.14748774,-0.08104916,3.38000000,-14.20000000,-0.07000000
781,0,0.24600000,0.05500000,0.96900000,-0.19000000,-0.08000000,0.21000000,-0.05701175,-0.14756982,-0.08083369,3.38000000,-14.20000000,-0.07000000
782,0,0.24800000,0.05800000,0.96400000,-0.07000000,0.10000000,0.07000000,-0.05708309,-0.14746791,-0.08076236,3.38000000,-14.20000000,-0.07000000
783,0,0.24700000,0.05300000,0.96800000,-0.10000000,-0.03000000,-0.15000000,-0.05718469,-0.14749839,-0.08091476,3.38000000,-14.20000000,-0.07000000
784,0,0.24500000,0.05900000,0.96700000,-0.00000000,-0.08000000,0.07000000,-0.05718469,-0.14757944,-0.08084384,3.38000000,-14.20000000,-0.07000000
785,0,0.24300000,0.06200000,0.97000000,0.18000000,0.01000000,-0.05000000,-0.04719913,-0.14702469,-0.08361760,3.38000000,-14.20000000,-0.07000000
786,0,0.24800000,0.05500000,0.96800000,-0.10000000,0.06000000,-0.12000000,-0.04730643,-0.14696031,-0.08374636,3.38000000,-14.20000000,-0.07000000
787,0,0.25000000,0.05300000,0.97200000,-0.16000000,0.05000000,0.04000000,-0.04747212,-0.14690853,-0.08370494,3.38000000,-14.20000000,-0.07000000
788,0,0.24500000,0.05800000,0.97000000,-0.14000000,0.16000000,0.14000000,-0.04761332,-0.14674715,-0.08356373,3.38000000,-14.20000000,-0.07000000
789,0,0.24500000,0.05600000,0.96500000,-0.09000000,-0.07000000,-0.22000000,-0.04770347,-0.14681727,-0.08378411,3.38000000,-14.20000000,-0.07000000
790,0,0.24800000,0.05500000,0.96600000,0.02000000,0.19000000,-0.02000000,-0.04768328,-0.14662541,-0.08380430,3.38000000,-14.20000000,-0.07000000
791,0,0.24000000,0.06000000,0.96000000,0.02000000,0.05000000,0.13000000,-0.04657183,-0.14384678,-0.07657986,3.38000000,-14.20000000,-0.07000000
792,0,0.24800000,0.05700000,0.96800000,-0.15000000,-0.02000000,0.29000000,-0.04672823,-0.14386763,-0.07627748,3.38000000,-14.20000000,-0.07000000
793,0,0.24300000,0.06300000,0.96600000,-0.01000000,-0.15000000,-0.24000000,-0.04673857,-0.14402271,-0.07652561,3.38000000,-14.20000000,-0.07000000
794,0,0.24600000,0.05400000,0.96500000,-0.03000000,0.02000000,-0.10000000,-0.04676899,-0.14400244,-0.07662700,3.38000000,-14.20000000,-0.07000000
795,0,0.24800000,0.05500000,0.97000000,0.01000000,-0.07000000,0.04000000,-0.04675891,-0.14407296,-0.07658670,3.38000000,-14.20000000,-0.07000000
796,0,0.24800000,0.05800000,0.97200000,0.10000000,-0.10000000,-0.14000000,-0.04665769,-0.14417418,-0.07672841,3.38000000,-14.20000000,-0.07000000
797,0,0.24700000,0.05600000,0.96900000,0.03000000,0.07000000,0.20000000,-0.04496873,-0.14023326,-0.06546864,3.38000000,-14.20000000,-0.07000000
798,0,0.24600000,0.05700000,0.97200000,-0.06000000,0.03000000,0.04000000,-0.04503334,-0.14020095,-0.06542557,3.38000000,-14.20000000,-0.07000000
799,0,0.24300000,0.06200000,0.96700000,0.12000000,-0.01000000,0.04000000,-0.04491139,-0.14021112,-0.06538492,3.38000000,-14.20000000,-0.07000000
800,0,0.24300000,0.05800000,0.96400000,-0.43000000,-0.05000000,-0.04000000,-0.04534048,-0.14026101,-0.06542483,3.38000000,-14.20000000,-0.07000000
801,0,0.24400000,0.05100000,0.96700000,-0.12000000,0.01000000,0.02000000,-0.04545968,-0.14025108,-0.06540497,3.38000000,-14.20000000,-0.07000000
802,0,0.24200000,0.06100000,0.97000000,0.05000000,-0.00000000,-0.05000000,-0.04540980,-0.14025108,-0.06545485,3.38000000,-14.20000000,-0.07000000
803,0,0.24300000,0.05900000,0.96700000,0.14000000,0.04000000,-0.13000000,-0.03764258,-0.13803187,-0.07266726,3.38000000,-14.20000000,-0.07000000
804,0,0.24700000,0.06000000,0.96800000,-0.12000000,0.17000000,0.05000000,-0.03777011,-0.13785121,-0.07261413,3.38000000,-14.20000000,-0.07000000
805,0,0.24400000,0.05500000,0.96300000,0.05000000,0.06000000,0.19000000,-0.03771944,-0.13779040,-0.07242158,3.38000000,-14.20000000,-0.07000000
806,0,0.24300000,0.05200000,0.96900000,0.38000000,0.02000000,0.18000000,-0.03733744,-0.13777030,-0.07224063,3.38000000,-14.20000000,-0.07000000
807,0,0.25000000,0.05700000,0.96600000,-0.00000000,0.06000000,0.23000000,-0.03733744,-0.13770952,-0.07200767,3.38000000,-14.20000000,-0.07000000
808,0,0.24500000,0.05300000,0.97000000,-0.10000000,0.12000000,-0.02000000,-0.03743794,-0.13758892,-0.07202777,3.38000000,-14.20000000,-0.07000000
809,0,0.25200000,0.05700000,0.96900000,0.09000000,-0.13000000,-0.09000000,-0.03243074,-0.14482154,-0.07703497,3.38000000,-14.20000000,-0.07000000
810,0,0.24600000,0.05600000,0.96900000,0.18000000,-0.14000000,0.27000000,-0.03223915,-0.14497056,-0.07674758,3.38000000,-14.20000000,-0.07000000
811,0,0.24600000,0.05800000,0.96600000,-0.17000000,0.09000000,-0.18000000,-0.03241090,-0.14487963,-0.07692943,3.38000000,-14.20000000,-0.07000000
812,0,0.24600000,0.05500000,0.96600000,0.01000000,-0.08000000,-0.17000000,-0.03240091,-0.14495950,-0.07709915,3.38000000,-14.20000000,-0.07000000
813,0,0.24200000,0.05800000,0.96700000,0.07000000,0.08000000,0.12000000,-0.03233041,-0.14487893,-0.07697829,3.38000000,-14.20000000,-0.07000000
814,0,0.24500000,0.05600000,0.96600000,0.04000000,0.20000000,0.09000000,-0.03229030,-0.14467840,-0.07688805,3.38000000,-14.20000000,-0.07000000
815,0,0.24500000,0.06000000,0.96500000,0.15000000,0.06000000,0.17000000,-0.02384294,-0.14129945,-0.06731437,3.38000000,-14.20000000,-0.06000000
816,0,0.24500000,0.05400000,0.96800000,0.05000000,0.03000000,-0.15000000,-0.02379044,-0.14126795,-0.06747188,3.38000000,-14.20000000,-0.06000000
817,0,0.24800000,0.05600000,0.96400000,0.15000000,-0.11000000,0.20000000,-0.02364025,-0.14137808,-0.06727164,3.38000000,-14.20000000,-0.07000000
818,0,0.24700000,0.05700000,0.96500000,-0.05000000,0.21000000,0.01000000,-0.02369027,-0.14116803,-0.06726164,3.38000000,-14.20000000,-0.07000000
819,0,0.24100000,0.06000000,0.96600000,-0.01000000,0.13000000,-0.17000000,-0.02370026,-0.14103808,-0.06743156,3.38000000,-14.20000000,-0.07000000
820,0,0.24200000,0.05900000,0.96600000,-0.10000000,0.01000000,0.03000000,-0.02380219,-0.14102789,-0.06740098,3.38000000,-14.20000000,-0.07000000
821,0,0.24600000,0.05500000,0.96800000,0.12000000,0.06000000,-0.08000000,-0.01714547,-0.13769953,-0.07183880,3.38000000,-14.20000000,-0.07000000
822,0,0.24400000,0.05700000,0.96600000,0.19000000,-0.08000000,-0.17000000,-0.01693929,-0.13778634,-0.07202327,3.38000000,-14.20000000,-0.07000000
823,0,0.24200000,0.05600000,0.96600000,0.01000000,-0.09000000,-0.00000000,-0.01692909,-0.13787819,-0.07202327,3.38000000,-14.20000000,-0.07000000
824,0,0.24500000,0.05500000,0.97100000,-0.07000000,-0.09000000,0.11000000,-0.01699912,-0.13796823,-0.07191322,3.38000000,-14.20000000,-0.07000000
