Measurement Count,IMU_MODE,Accel_X,Accel_Y,Accel_Z,Gyro_X,Gyro_Y,Gyro_Z,X_DEL_ANG,Y_DEL_ANG,Z_DEL_ANG,ROLL,PITCH,HEADING
1,0,-0.33900000,-0.15000000,0.93200000,-0.01000000,0.02000000,-0.32000000,-0.00001006,0.00002012,-0.00032199,-9.10000000,19.77000000,0.03000000
2,0,-0.33600000,-0.15000000,0.93100000,0.16000000,0.02000000,0.13000000,0.00015776,0.00004110,-0.00018564,-8.94000000,19.78000000,0.09000000
3,0,-0.33100000,-0.14700000,0.92600000,0.01000000,-0.18000000,-0.10000000,0.00016807,-0.00014435,-0.00028867,-8.98000000,19.73000000,0.07000000
4,0,-0.33800000,-0.14500000,0.92700000,-0.00000000,0.50000000,-0.17000000,0.00016807,0.00035530,-0.00045855,-8.96000000,19.73000000,0.08000000
5,0,-0.33500000,-0.14700000,0.92700000,0.02000000,0.09000000,-0.05000000,0.00018800,0.00044501,-0.00050838,-8.99000000,19.68000000,0.07000000
6,0,-0.34000000,-0.14800000,0.93100000,0.27000000,-0.15000000,-0.16000000,0.00046084,0.00029343,-0.00067007,-9.00000000,19.67000000,0.06000000
7,0,-0.33600000,-0.14400000,0.92300000,0.02000000,-0.28000000,-0.02000000,0.00048137,0.00000601,-0.00069060,-9.00000000,19.67000000,0.06000000
8,0,-0.33800000,-0.15000000,0.93100000,0.11000000,-0.09000000,-0.20000000,0.00059156,-0.00008414,-0.00089094,-9.01000000,19.67000000,0.06000000
9,0,-0.33600000,-0.14700000,0.93100000,-0.14000000,0.20000000,0.09000000,0.00045212,0.00011505,-0.00080130,-9.00000000,19.67000000,0.06000000
10,0,-0.33300000,-0.15200000,0.93100000,-0.13000000,0.01000000,0.06000000,0.00032305,0.00012498,-0.00074173,-9.00000000,19.67000000,0.06000000
11,0,-0.33400000,-0.14500000,0.93300000,0.12000000,-0.03000000,-0.03000000,0.00044431,0.00009467,-0.00077204,-9.01000000,19.67000000,0.06000000
12,0,-0.33800000,-0.15000000,0.92900000,-0.18000000,-0.20000000,0.17000000,0.00025855,-0.00011173,-0.00059661,-9.01000000,19.67000000,0.06000000
13,0,-0.33500000,-0.14600000,0.93200000,-0.05000000,-0.15000000,0.10000000,0.00020677,-0.00026706,-0.00049305,-9.01000000,19.67000000,0.06000000
14,0,-0.33600000,-0.14700000,0.93200000,0.09000000,-0.08000000,-0.05000000,0.00029725,-0.00034749,-0.00054331,-9.00000000,19.66000000,0.06000000
15,0,-0.33700000,-0.15100000,0.92800000,0.12000000,-0.10000000,-0.10000000,0.00042323,-0.00045247,-0.00064830,-9.00000000,19.66000000,0.06000000
16,0,-0.33600000,-0.14800000,0.93400000,-0.08000000,-0.25000000,0.13000000,0.00034209,-0.00070605,-0.00051644,-9.00000000,19.67000000,0.06000000
17,0,-0.33200000,-0.15300000,0.93400000,0.23000000,0.06000000,0.09000000,0.00057363,-0.00064565,-0.00042583,-9.00000000,19.67000000,0.06000000
18,0,-0.33900000,-0.15100000,0.92900000,0.11000000,-0.00000000,0.21000000,0.00068528,-0.00064565,-0.00021267,-9.01000000,19.67000000,0.06000000
19,0,-0.33400000,-0.14900000,0.92700000,0.12000000,-0.11000000,0.00000000,0.00080669,-0.00075694,-0.00021267,-9.02000000,19.67000000,0.06000000
20,0,-0.33300000,-0.14600000,0.93000000,0.05000000,-0.14000000,-0.03000000,0.00085735,-0.00089878,-0.00024307,-9.02000000,19.66000000,0.06000000
21,0,-0.33900000,-0.14900000,0.93000000,0.03000000,-0.27000000,-0.13000000,0.00088688,-0.00116460,-0.00037106,-9.02000000,19.66000000,0.05000000
22,0,-0.33400000,-0.14800000,0.93200000,0.11000000,0.02000000,-0.06000000,0.00099699,-0.00114459,-0.00043112,-9.03000000,19.65000000,0.05000000
23,0,-0.34400000,-0.14800000,0.92600000,0.03000000,-0.10000000,-0.03000000,0.00102699,-0.00124459,-0.00046112,-9.03000000,19.65000000,0.05000000
24,0,-0.33900000,-0.14600000,0.93300000,-0.03000000,0.04000000,-0.02000000,0.00099611,-0.00120341,-0.00048170,-9.03000000,19.65000000,0.05000000
25,0,-0.33400000,-0.14700000,0.92700000,0.08000000,-0.04000000,0.09000000,0.00107863,-0.00124467,-0.00038887,-9.03000000,19.65000000,0.05000000
26,0,-0.33700000,-0.15200000,0.93300000,0.05000000,0.01000000,-0.27000000,0.00112928,-0.00123454,-0.00066235,-9.03000000,19.66000000,0.05000000
27,0,-0.33600000,-0.14600000,0.93400000,0.06000000,0.20000000,-0.05000000,0.00118998,-0.00103220,-0.00071294,-9.03000000,19.65000000,0.05000000
28,0,-0.33900000,-0.14800000,0.93400000,0.01000000,0.15000000,0.13000000,0.00137811,0.00178982,0.00173281,-9.03000000,19.66000000,0.05000000
29,0,-0.33800000,-0.14500000,0.93100000,0.28000000,0.24000000,-0.12000000,0.00169991,0.00206565,0.00159490,-9.03000000,19.66000000,0.05000000
30,0,-0.33400000,-0.14700000,0.93100000,0.10000000,0.30000000,0.04000000,0.00180542,0.00238218,0.00163710,-9.03000000,19.66000000,0.05000000
31,0,-0.33900000,-0.15100000,0.93000000,0.14000000,-0.11000000,0.15000000,0.00196786,0.00225455,0.00181114,-9.03000000,19.66000000,0.05000000
32,0,-0.33100000,-0.15000000,0.93000000,0.35000000,0.10000000,0.04000000,0.00232438,0.00235641,0.00185189,-9.03000000,19.65000000,0.05000000
33,0,-0.33700000,-0.14900000,0.93200000,0.13000000,0.06000000,0.04000000,0.00245627,0.00241729,0.00189247,-9.03000000,19.66000000,0.05000000
34,0,-0.34100000,-0.14400000,0.92900000,0.13000000,-0.02000000,0.08000000,0.00960558,0.00131739,0.00629204,-9.03000000,19.66000000,0.05000000
35,0,-0.33500000,-0.14700000,0.93200000,-0.03000000,0.04000000,0.02000000,0.00957426,0.00135915,0.00631292,-9.03000000,19.66000000,0.05000000
36,0,-0.33600000,-0.15100000,0.92900000,-0.14000000,-0.13000000,-0.08000000,0.00942585,0.00122134,0.00622811,-9.03000000,19.66000000,0.05000000
37,0,-0.33600000,-0.14800000,0.92900000,0.14000000,0.08000000,0.39000000,0.00958665,0.00131322,0.00667605,-9.03000000,19.66000000,0.05000000
38,0,-0.33500000,-0.14300000,0.93200000,0.19000000,0.16000000,-0.02000000,0.00977779,0.00147418,0.00665593,-9.03000000,19.66000000,0.05000000
39,0,-0.33600000,-0.15000000,0.92700000,0.10000000,-0.19000000,-0.02000000,0.00987800,0.00128377,0.00663589,-9.04000000,19.66000000,0.04000000
40,0,-0.33200000,-0.14300000,0.93500000,0.15000000,0.14000000,0.02000000,0.01817363,0.00902635,0.00774197,-9.04000000,19.66000000,0.04000000
41,0,-0.33400000,-0.14900000,0.92400000,0.16000000,0.04000000,0.03000000,0.01834038,0.00906804,0.00777324,-9.04000000,19.66000000,0.04000000
42,0,-0.33500000,-0.15500000,0.93100000,0.06000000,-0.10000000,-0.23000000,0.01840014,0.00896844,0.00754417,-9.04000000,19.66000000,0.04000000
43,0,-0.33400000,-0.15300000,0.93000000,-0.25000000,-0.07000000,0.09000000,0.01814805,0.00889785,0.00763492,-9.04000000,19.66000000,0.04000000
44,0,-0.33500000,-0.14700000,0.92900000,0.19000000,0.12000000,-0.19000000,0.01833742,0.00901746,0.00744555,-9.05000000,19.66000000,0.04000000
45,0,-0.34000000,-0.14700000,0.92700000,0.04000000,0.21000000,-0.13000000,0.01837831,0.00923212,0.00731266,-9.05000000,19.66000000,0.04000000
46,0,-0.33500000,-0.14700000,0.92500000,-0.08000000,-0.07000000,-0.20000000,0.01385950,0.00527816,-0.00398435,-9.05000000,19.66000000,0.04000000
47,0,-0.33500000,-0.14600000,0.93000000,-0.08000000,0.02000000,0.07000000,0.01377651,0.00529891,-0.00391172,-9.05000000,19.66000000,0.03000000
48,0,-0.33000000,-0.14700000,0.93200000,0.21000000,-0.10000000,-0.15000000,0.01398967,0.00519741,-0.00406398,-9.05000000,19.66000000,0.03000000
49,0,-0.33600000,-0.15500000,0.92800000,-0.01000000,-0.25000000,-0.22000000,0.01397970,0.00494830,-0.00428320,-9.06000000,19.66000000,0.03000000
50,0,-0.33600000,-0.15100000,0.92900000,-0.08000000,-0.08000000,0.18000000,0.01390054,0.00486913,-0.00410508,-9.06000000,19.66000000,0.03000000
51,0,-0.33600000,-0.15000000,0.93200000,-0.14000000,0.10000000,0.04000000,0.01375059,0.00497624,-0.00406224,-9.05000000,19.66000000,0.03000000
52,0,-0.33600000,-0.14900000,0.92700000,-0.02000000,0.04000000,0.18000000,0.01264043,0.00719656,0.00592920,-9.05000000,19.66000000,0.03000000
53,0,-0.33500000,-0.14400000,0.92600000,-0.17000000,-0.15000000,-0.07000000,0.01246045,0.00703776,0.00585509,-9.06000000,19.66000000,0.03000000
54,0,-0.33500000,-0.14700000,0.92700000,-0.03000000,-0.14000000,-0.17000000,0.01242972,0.00689435,0.00568095,-9.06000000,19.66000000,0.03000000
55,0,-0.33800000,-0.14900000,0.92700000,0.02000000,-0.11000000,-0.02000000,0.01244973,0.00678429,0.00566094,-9.06000000,19.66000000,0.03000000
56,0,-0.33300000,-0.15100000,0.92900000,-0.04000000,0.20000000,-0.13000000,0.01241011,0.00698239,0.00553218,-9.06000000,19.66000000,0.03000000
57,0,-0.33900000,-0.14900000,0.92900000,0.15000000,-0.07000000,0.21000000,0.01255894,0.00691294,0.00574053,-9.06000000,19.66000000,0.03000000
58,0,-0.33800000,-0.15300000,0.92900000,-0.12000000,-0.04000000,-0.19000000,0.00554573,0.00457520,-0.00536372,-9.07000000,19.66000000,0.03000000
59,0,-0.33700000,-0.14900000,0.92800000,-0.08000000,0.04000000,0.02000000,0.00546079,0.00461768,-0.00534248,-9.07000000,19.66000000,0.03000000
60,0,-0.33800000,-0.14700000,0.92700000,-0.02000000,-0.15000000,-0.03000000,0.00544058,0.00446617,-0.00537278,-9.07000000,19.66000000,0.03000000
61,0,-0.34000000,-0.15000000,0.93000000,-0.05000000,-0.19000000,-0.08000000,0.00538789,0.00426593,-0.00545710,-9.07000000,19.66000000,0.03000000
62,0,-0.33700000,-0.14500000,0.93100000,0.09000000,0.12000000,0.06000000,0.00548167,0.00439096,-0.00539458,-9.06000000,19.66000000,0.03000000
63,0,-0.33100000,-0.14800000,0.93300000,0.21000000,0.28000000,0.00000000,0.00570014,0.00468226,-0.00539458,-9.07000000,19.66000000,0.03000000
64,0,-0.33500000,-0.15000000,0.92900000,-0.02000000,0.21000000,0.09000000,0.00567931,0.00490092,-0.00530086,-9.07000000,19.66000000,0.03000000
65,0,-0.34000000,-0.14800000,0.93000000,-0.15000000,-0.04000000,-0.07000000,-0.00276283,0.00264969,-0.00924053,-9.07000000,19.66000000,0.03000000
66,0,-0.33500000,-0.14800000,0.92900000,-0.24000000,0.03000000,-0.17000000,-0.00301583,0.00268131,-0.00941973,-9.07000000,19.66000000,0.03000000
67,0,-0.33300000,-0.14900000,0.93100000,0.08000000,-0.11000000,-0.10000000,-0.00293569,0.00257112,-0.00951990,-9.07000000,19.66000000,0.03000000
68,0,-0.33600000,-0.14900000,0.92500000,0.18000000,0.23000000,-0.12000000,-0.00275796,0.00279822,-0.00963839,-9.07000000,19.66000000,0.03000000
69,0,-0.33400000,-0.15300000,0.92700000,0.01000000,0.17000000,0.13000000,-0.00274810,0.00296588,-0.00951018,-9.07000000,19.66000000,0.03000000
70,0,-0.33600000,-0.14600000,0.92900000,0.00000000,0.07000000,-0.28000000,-0.00274810,0.00303516,-0.00978732,-9.07000000,19.65000000,0.03000000
71,0,-0.33800000,-0.14600000,0.92600000,-0.09000000,0.15000000,0.15000000,-0.00774998,0.01137163,-0.00145086,-9.06000000,19.65000000,0.03000000
72,0,-0.33200000,-0.14800000,0.92900000,0.04000000,0.26000000,-0.10000000,-0.00770805,0.01164416,-0.00155568,-9.06000000,19.65000000,0.03000000
73,0,-0.33400000,-0.14900000,0.92600000,0.30000000,0.10000000,0.13000000,-0.00740468,0.01174528,-0.00142422,-9.06000000,19.65000000,0.03000000
74,0,-0.33400000,-0.15200000,0.93200000,-0.06000000,0.04000000,0.11000000,-0.00746427,0.01178500,-0.00131497,-9.06000000,19.65000000,0.03000000
75,0,-0.33500000,-0.14800000,0.93100000,0.01000000,0.12000000,-0.17000000,-0.00745430,0.01190461,-0.00148441,-9.06000000,19.65000000,0.03000000
76,0,-0.33400000,-0.15100000,0.93100000,0.00000000,-0.09000000,0.01000000,-0.00745430,0.01181510,-0.00147447,-9.06000000,19.65000000,0.03000000
77,0,-0.33600000,-0.15300000,0.93300000,-0.07000000,0.02000000,-0.09000000,-0.01133739,0.01292455,-0.00646701,-9.06000000,19.65000000,0.03000000
78,0,-0.34300000,-0.14900000,0.93200000,-0.05000000,-0.16000000,0.13000000,-0.01139001,0.01275616,-0.00633019,-9.06000000,19.65000000,0.03000000
79,0,-0.33700000,-0.15100000,0.92900000,-0.06000000,-0.07000000,-0.13000000,-0.01145030,0.01268582,-0.00646081,-9.06000000,19.65000000,0.03000000
80,0,-0.33700000,-0.14800000,0.93400000,0.11000000,0.01000000,-0.03000000,-0.01134067,0.01269579,-0.00649071,-9.06000000,19.65000000,0.03000000
81,0,-0.34000000,-0.14900000,0.92700000,0.19000000,0.07000000,-0.11000000,-0.01115293,0.01276495,-0.00659940,-9.06000000,19.65000000,0.03000000
82,0,-0.34000000,-0.14500000,0.93200000,0.11000000,-0.12000000,0.04000000,-0.01104376,0.01264587,-0.00655971,-9.06000000,19.65000000,0.03000000
83,0,-0.33600000,-0.15200000,0.93100000,0.07000000,-0.04000000,0.13000000,-0.00713639,0.01041308,0.00069684,-9.06000000,19.65000000,0.03000000
84,0,-0.34200000,-0.14800000,0.93000000,0.11000000,-0.03000000,0.10000000,-0.00701972,0.01038126,0.00080290,-9.06000000,19.65000000,0.03000000
85,0,-0.33200000,-0.14900000,0.93200000,0.00000000,-0.04000000,-0.02000000,-0.00701972,0.01034134,0.00078294,-9.06000000,19.65000000,0.03000000
86,0,-0.33700000,-0.15500000,0.92800000,-0.04000000,-0.08000000,0.09000000,-0.00705928,0.01026223,0.00087193,-9.06000000,19.65000000,0.03000000
87,0,-0.33900000,-0.14800000,0.93100000,0.20000000,0.01000000,-0.11000000,-0.00686156,0.01027212,0.00076319,-9.06000000,19.65000000,0.03000000
88,0,-0.33700000,-0.14700000,0.93000000,0.02000000,0.11000000,0.11000000,-0.00684173,0.01038120,0.00087227,-9.06000000,19.65000000,0.03000000
89,0,-0.33200000,-0.15200000,0.93000000,0.07000000,-0.10000000,-0.09000000,-0.00290381,0.00475561,-0.00419076,-9.06000000,19.65000000,0.03000000
90,0,-0.33500000,-0.14600000,0.92800000,0.13000000,0.30000000,0.08000000,-0.00276925,0.00506614,-0.00410795,-9.06000000,19.65000000,0.02000000
91,0,-0.33800000,-0.14900000,0.92400000,-0.01000000,0.15000000,0.04000000,-0.00277928,0.00521660,-0.00406783,-9.06000000,19.65000000,0.02000000
92,0,-0.33600000,-0.14900000,0.93000000,0.11000000,0.18000000,-0.05000000,-0.00267062,0.00539442,-0.00411722,-9.06000000,19.65000000,0.02000000
93,0,-0.33000000,-0.14800000,0.93100000,-0.15000000,-0.12000000,0.16000000,-0.00282062,0.00527442,-0.00395722,-9.06000000,19.65000000,0.03000000
94,0,-0.33600000,-0.15000000,0.93300000,0.16000000,-0.05000000,-0.10000000,-0.00265440,0.00522247,-0.00406111,-9.06000000,19.65000000,0.02000000
95,0,-0.33800000,-0.15300000,0.93100000,0.01000000,0.04000000,0.09000000,-0.00209936,0.00744264,0.00093427,-9.06000000,19.65000000,0.02000000
96,0,-0.33800000,-0.14800000,0.93100000,0.18000000,-0.29000000,-0.07000000,-0.00190716,0.00713300,0.00085953,-9.06000000,19.65000000,0.02000000
97,0,-0.33500000,-0.14900000,0.93200000,-0.31000000,0.07000000,-0.05000000,-0.00222035,0.00720372,0.00080901,-9.07000000,19.66000000,0.02000000
98,0,-0.33500000,-0.15400000,0.93300000,-0.05000000,0.01000000,0.06000000,-0.00227054,0.00721375,0.00086925,-9.07000000,19.65000000,0.02000000
99,0,-0.33800000,-0.14600000,0.92800000,-0.05000000,-0.17000000,0.03000000,-0.00232040,0.00704424,0.00089916,-9.06000000,19.66000000,0.02000000
100,0,-0.33500000,-0.15200000,0.92900000,-0.01000000,-0.07000000,0.05000000,-0.00233087,0.00697098,0.00095149,-9.06000000,19.66000000,0.02000000
101,0,-0.33600000,-0.15100000,0.93100000,0.19000000,0.20000000,0.08000000,0.00838824,0.01825425,0.00546480,-9.07000000,19.66000000,0.02000000
102,0,-0.33600000,-0.15100000,0.93100000,-0.09000000,0.14000000,-0.13000000,0.00829464,0.01839987,0.00532959,-9.07000000,19.66000000,0.02000000
103,0,-0.33500000,-0.14600000,0.92900000,0.18000000,-0.15000000,-0.11000000,0.00847305,0.01825118,0.00522055,-9.07000000,19.66000000,0.02000000
104,0,-0.33700000,-0.15000000,0.93100000,-0.23000000,-0.17000000,-0.26000000,0.00823356,0.01807417,0.00494982,-9.07000000,19.66000000,0.02000000
105,0,-0.33700000,-0.15200000,0.93500000,-0.25000000,-0.08000000,-0.16000000,0.00797730,0.01799216,0.00478581,-9.07000000,19.65000000,0.02000000
106,0,-0.33400000,-0.15000000,0.92600000,0.16000000,-0.10000000,-0.01000000,0.00813921,0.01789097,0.00477569,-9.07000000,19.65000000,0.02000000
107,0,-0.33300000,-0.14900000,0.92700000,-0.16000000,-0.10000000,-0.03000000,-0.00073479,0.01234472,0.00311182,-9.07000000,19.65000000,0.02000000
108,0,-0.33900000,-0.15100000,0.93200000,0.08000000,-0.29000000,0.17000000,-0.00065057,0.01203943,0.00329078,-9.07000000,19.65000000,0.02000000
109,0,-0.33900000,-0.15000000,0.93100000,-0.03000000,-0.13000000,0.14000000,-0.00068077,0.01190856,0.00343172,-9.07000000,19.65000000,0.02000000
110,0,-0.33900000,-0.15000000,0.92800000,-0.12000000,-0.15000000,0.05000000,-0.00080180,0.01175727,0.00348215,-9.07000000,19.66000000,0.02000000
111,0,-0.33900000,-0.15100000,0.92800000,0.04000000,-0.02000000,0.14000000,-0.00075969,0.01173621,0.00362953,-9.07000000,19.66000000,0.02000000
112,0,-0.33400000,-0.14900000,0.93100000,0.07000000,0.10000000,-0.06000000,-0.00068829,0.01183822,0.00356833,-9.07000000,19.66000000,0.02000000
113,0,-0.33800000,-0.14700000,0.93400000,0.05000000,-0.05000000,-0.18000000,0.00208287,0.00906706,-0.00640784,-9.08000000,19.66000000,0.02000000
114,0,-0.33500000,-0.15000000,0.93200000,-0.04000000,-0.09000000,0.11000000,0.00204108,0.00897305,-0.00629293,-9.07000000,19.66000000,0.02000000
115,0,-0.34100000,-0.14700000,0.92800000,0.02000000,0.31000000,-0.13000000,0.00206099,0.00928158,-0.00642231,-9.07000000,19.66000000,0.02000000
116,0,-0.34000000,-0.15000000,0.93300000,0.28000000,-0.00000000,-0.03000000,0.00234019,0.00928158,-0.00645223,-9.07000000,19.66000000,0.02000000
117,0,-0.33700000,-0.14900000,0.93300000,-0.14000000,-0.21000000,-0.04000000,0.00219882,0.00906952,-0.00649262,-9.07000000,19.66000000,0.02000000
118,0,-0.33800000,-0.14500000,0.93200000,0.07000000,-0.06000000,-0.08000000,0.00226894,0.00900942,-0.00657276,-9.07000000,19.66000000,0.02000000
119,0,-0.33400000,-0.15200000,0.92900000,0.05000000,-0.05000000,-0.14000000,0.00509393,0.00618443,-0.01448273,-9.07000000,19.66000000,0.02000000
120,0,-0.33900000,-0.15200000,0.92900000,-0.00000000,-0.02000000,0.12000000,0.00509393,0.00616353,-0.01435735,-9.08000000,19.66000000,0.02000000
121,0,-0.33600000,-0.15000000,0.93300000,0.09000000,-0.02000000,-0.05000000,0.00518372,0.00614358,-0.01440723,-9.07000000,19.66000000,0.02000000
122,0,-0.33900000,-0.15400000,0.93300000,-0.11000000,-0.13000000,-0.35000000,0.00507164,0.00601112,-0.01476383,-9.07000000,19.66000000,0.02000000
123,0,-0.33400000,-0.14900000,0.93300000,-0.13000000,0.09000000,0.18000000,0.00494105,0.00610153,-0.01458301,-9.08000000,19.65000000,0.02000000
124,0,-0.33700000,-0.15200000,0.93100000,-0.07000000,0.01000000,0.19000000,0.00487085,0.00611156,-0.01439246,-9.08000000,19.65000000,0.02000000
125,0,-0.33500000,-0.15000000,0.92800000,-0.03000000,0.02000000,0.23000000,0.00320617,0.00722135,-0.00162996,-9.08000000,19.65000000,0.02000000
126,0,-0.33500000,-0.14400000,0.92800000,0.00000000,-0.33000000,0.14000000,0.00320617,0.00687985,-0.00148508,-9.08000000,19.65000000,0.02000000
127,0,-0.33700000,-0.14900000,0.92700000,-0.02000000,0.11000000,0.11000000,0.00318636,0.00698880,-0.00137612,-9.08000000,19.65000000,0.02000000
128,0,-0.33300000,-0.15000000,0.93200000,0.18000000,0.15000000,0.26000000,0.00337530,0.00714625,-0.00110322,-9.08000000,19.65000000,0.02000000
129,0,-0.33500000,-0.14600000,0.92600000,0.18000000,-0.02000000,-0.13000000,0.00355521,0.00712626,-0.00123316,-9.08000000,19.65000000,0.02000000
130,0,-0.33000000,-0.15200000,0.93000000,0.04000000,0.12000000,0.18000000,0.00359507,0.00724583,-0.00105380,-9.08000000,19.65000000,0.02000000
131,0,-0.33900000,-0.15300000,0.93100000,0.04000000,0.03000000,-0.19000000,0.00581875,0.00891359,-0.01161627,-9.08000000,19.65000000,0.02000000
132,0,-0.33600000,-0.15000000,0.93400000,0.26000000,0.05000000,0.03000000,0.00608762,0.00896529,-0.01158524,-9.08000000,19.65000000,0.02000000
133,0,-0.33700000,-0.14800000,0.93000000,-0.18000000,-0.15000000,0.17000000,0.00590757,0.00881525,-0.01141520,-9.08000000,19.65000000,0.02000000
134,0,-0.33800000,-0.15300000,0.92900000,0.00000000,0.03000000,0.08000000,0.00590757,0.00884576,-0.01133384,-9.08000000,19.65000000,0.02000000
135,0,-0.33600000,-0.14200000,0.92400000,0.22000000,-0.08000000,-0.19000000,0.00612632,0.00876622,-0.01152276,-9.08000000,19.65000000,0.02000000
136,0,-0.33400000,-0.15200000,0.93000000,-0.14000000,-0.10000000,-0.01000000,0.00598749,0.00866705,-0.01153268,-9.08000000,19.65000000,0.02000000
137,0,-0.33700000,-0.14900000,0.93400000,-0.08000000,0.15000000,0.06000000,0.00147116,0.01713516,-0.00814543,-9.08000000,19.65000000,0.02000000
138,0,-0.33600000,-0.14900000,0.93300000,0.15000000,0.11000000,0.15000000,0.00162671,0.01724923,-0.00798989,-9.08000000,19.65000000,0.02000000
139,0,-0.33700000,-0.15100000,0.93500000,-0.04000000,0.23000000,-0.14000000,0.00158554,0.01748598,-0.00813400,-9.08000000,19.65000000,0.02000000
140,0,-0.33500000,-0.14600000,0.92500000,-0.03000000,0.07000000,0.13000000,0.00155557,0.01755590,-0.00800415,-9.08000000,19.65000000,0.02000000
141,0,-0.33500000,-0.14900000,0.93300000,-0.13000000,0.20000000,-0.13000000,0.00142371,0.01775876,-0.00813601,-9.08000000,19.65000000,0.02000000
142,0,-0.33600000,-0.15000000,0.93300000,0.28000000,-0.05000000,-0.08000000,0.00170545,0.01770845,-0.00821651,-9.08000000,19.65000000,0.02000000
143,0,-0.33500000,-0.15800000,0.92400000,-0.07000000,-0.70000000,0.38000000,-0.00217572,-0.02110326,0.01285270,-9.08000000,19.64000000,0.02000000
144,0,-0.33800000,-0.15400000,0.92600000,1.02000000,0.07000000,-0.31000000,-0.00111751,-0.02103063,0.01253109,-9.06000000,19.64000000,0.02000000
145,0,-0.33300000,-0.15000000,0.93300000,0.36000000,0.41000000,-0.01000000,-0.00075355,-0.02061613,0.01252098,-9.06000000,19.64000000,0.02000000
146,0,-0.33200000,-0.15500000,0.92800000,-0.26000000,-0.04000000,0.70000000,-0.00101647,-0.02065657,0.01322885,-9.06000000,19.64000000,0.02000000
147,0,-0.33400000,-0.14600000,0.92800000,1.37000000,0.58000000,0.09000000,0.00034442,-0.02008043,0.01331825,-9.05000000,19.65000000,0.03000000
148,0,-0.33600000,-0.14800000,0.93500000,-0.34000000,-0.02000000,0.01000000,0.00000628,-0.02010032,0.01332819,-9.04000000,19.65000000,0.03000000
149,0,-0.33400000,-0.15000000,0.92500000,-0.58000000,-0.27000000,0.01000000,-0.03226290,-0.03512218,0.01388456,-9.05000000,19.65000000,0.03000000
150,0,-0.33300000,-0.15000000,0.93000000,0.65000000,0.23000000,0.53000000,-0.03158545,-0.03488246,0.01443694,-9.05000000,19.65000000,0.03000000
151,0,-0.33400000,-0.14400000,0.92800000,0.15000000,0.12000000,0.01000000,-0.03143362,-0.03476100,0.01444706,-9.04000000,19.65000000,0.03000000
152,0,-0.33000000,-0.15200000,0.92700000,-0.74000000,-0.30000000,-0.00000000,-0.03217452,-0.03506137,0.01444706,-9.05000000,19.65000000,0.03000000
153,0,-0.33100000,-0.15400000,0.92800000,-0.20000000,-0.12000000,0.06000000,-0.03237319,-0.03518057,0.01450666,-9.05000000,19.65000000,0.03000000
154,0,-0.33200000,-0.14900000,0.92900000,0.50000000,0.08000000,-0.06000000,-0.03187568,-0.03510097,0.01444696,-9.05000000,19.64000000,0.03000000
155,0,-0.33800000,-0.15500000,0.93400000,-0.05000000,-0.27000000,-0.22000000,-0.03469482,-0.05032431,0.00204275,-9.05000000,19.64000000,0.03000000
156,0,-0.34000000,-0.15400000,0.92100000,-0.01000000,-0.08000000,-0.14000000,-0.03470533,-0.05040836,0.00189567,-9.06000000,19.64000000,0.03000000
157,0,-0.33800000,-0.14600000,0.93100000,0.53000000,0.30000000,-0.04000000,-0.03415054,-0.05009433,0.00185380,-9.05000000,19.64000000,0.03000000
158,0,-0.34100000,-0.14900000,0.93400000,-0.58000000,-0.11000000,-0.20000000,-0.03473429,-0.05020504,0.00165251,-9.05000000,19.65000000,0.03000000
159,0,-0.33400000,-0.15200000,0.92600000,-0.06000000,0.12000000,-0.17000000,-0.03479345,-0.05008673,0.00148490,-9.06000000,19.65000000,0.03000000
160,0,-0.33300000,-0.14700000,0.92900000,0.23000000,0.07000000,-0.23000000,-0.03455873,-0.05001529,0.00125017,-9.06000000,19.65000000,0.02000000
161,0,-0.33200000,-0.14900000,0.93100000,-0.02000000,0.06000000,0.08000000,-0.03566789,-0.04668780,0.00568683,-9.05000000,19.64000000,0.02000000
162,0,-0.33500000,-0.14800000,0.92800000,-0.12000000,-0.27000000,-0.09000000,-0.03579571,-0.04697538,0.00559097,-9.06000000,19.64000000,0.02000000
163,0,-0.33000000,-0.14600000,0.92800000,0.29000000,0.03000000,-0.06000000,-0.03550514,-0.04694532,0.00553085,-9.05000000,19.64000000,0.02000000
164,0,-0.33600000,-0.14800000,0.93000000,0.16000000,-0.20000000,-0.09000000,-0.03534701,-0.04714299,0.00544190,-9.05000000,19.64000000,0.02000000
165,0,-0.33200000,-0.15200000,0.92400000,-0.26000000,-0.24000000,0.08000000,-0.03560485,-0.04738100,0.00552123,-9.05000000,19.64000000,0.02000000
166,0,-0.33600000,-0.14900000,0.93300000,0.40000000,-0.10000000,-0.17000000,-0.03520236,-0.04748162,0.00535017,-9.05000000,19.64000000,0.02000000
167,0,-0.33300000,-0.15200000,0.93100000,0.13000000,-0.07000000,0.16000000,-0.02796573,-0.05137826,0.01425678,-9.05000000,19.64000000,0.02000000
168,0,-0.33500000,-0.14900000,0.92800000,0.13000000,0.08000000,-0.18000000,-0.02782535,-0.05129187,0.01406240,-9.05000000,19.64000000,0.02000000
169,0,-0.33500000,-0.15000000,0.93100000,0.05000000,0.00000000,-0.03000000,-0.02777511,-0.05129187,0.01403226,-9.05000000,19.64000000,0.02000000
170,0,-0.33700000,-0.14600000,0.92900000,0.09000000,-0.06000000,0.02000000,-0.02768577,-0.05135143,0.01405211,-9.05000000,19.64000000,0.02000000
171,0,-0.33300000,-0.15100000,0.93100000,-0.06000000,-0.17000000,0.16000000,-0.02774509,-0.05151949,0.01421029,-9.05000000,19.64000000,0.02000000
172,0,-0.33300000,-0.14900000,0.92700000,0.10000000,0.09000000,0.05000000,-0.02764444,-0.05142891,0.01426061,-9.05000000,19.64000000,0.02000000
173,0,-0.33200000,-0.15100000,0.93000000,0.11000000,0.16000000,-0.22000000,-0.02144845,-0.04241655,0.00186862,-9.05000000,19.64000000,0.02000000
174,0,-0.34000000,-0.14700000,0.92900000,-0.16000000,-0.02000000,-0.12000000,-0.02161581,-0.04243747,0.00174310,-9.05000000,19.64000000,0.02000000
175,0,-0.33800000,-0.14700000,0.92900000,0.17000000,0.07000000,-0.02000000,-0.02144569,-0.04236742,0.00172308,-9.05000000,19.64000000,0.02000000
176,0,-0.34000000,-0.14700000,0.93000000,0.20000000,-0.02000000,-0.06000000,-0.02124725,-0.04238727,0.00166355,-9.05000000,19.64000000,0.02000000
177,0,-0.33100000,-0.14900000,0.93300000,0.18000000,0.13000000,-0.13000000,-0.02105927,-0.04225150,0.00152778,-9.05000000,19.64000000,0.02000000
178,0,-0.33300000,-0.14900000,0.93300000,-0.05000000,-0.04000000,0.05000000,-0.02111002,-0.04229210,0.00157854,-9.05000000,19.64000000,0.02000000
179,0,-0.33500000,-0.14800000,0.93300000,-0.09000000,0.20000000,-0.09000000,-0.02610941,-0.03118234,-0.00342085,-9.05000000,19.64000000,0.02000000
180,0,-0.33600000,-0.14800000,0.93100000,0.50000000,0.12000000,0.05000000,-0.02558126,-0.03105559,-0.00336804,-9.05000000,19.64000000,0.02000000
181,0,-0.33700000,-0.14500000,0.93200000,-0.00000000,0.16000000,0.01000000,-0.02558126,-0.03089604,-0.00335807,-9.05000000,19.64000000,0.02000000
182,0,-0.33500000,-0.14800000,0.93100000,-0.01000000,0.07000000,-0.02000000,-0.02559124,-0.03082616,-0.00337803,-9.05000000,19.64000000,0.02000000
183,0,-0.33200000,-0.15000000,0.92300000,-0.21000000,0.11000000,0.27000000,-0.02580500,-0.03071419,-0.00310320,-9.05000000,19.64000000,0.02000000
184,0,-0.33200000,-0.15100000,0.92700000,0.12000000,0.03000000,0.05000000,-0.02568520,-0.03068424,-0.00305328,-9.05000000,19.64000000,0.02000000
185,0,-0.33600000,-0.15000000,0.92800000,-0.12000000,-0.14000000,0.25000000,-0.02580472,-0.03082367,-0.00280429,-9.05000000,19.64000000,0.02000000
186,0,-0.33400000,-0.14900000,0.92800000,0.04000000,0.15000000,-0.28000000,-0.02346845,-0.02206267,-0.01915816,-9.05000000,19.64000000,0.02000000
187,0,-0.33700000,-0.14900000,0.92900000,0.11000000,0.09000000,-0.26000000,-0.02335409,-0.02196910,-0.01942846,-9.05000000,19.64000000,0.02000000
188,0,-0.33600000,-0.15000000,0.93000000,-0.04000000,0.01000000,-0.24000000,-0.02339404,-0.02195912,-0.01966812,-9.05000000,19.64000000,0.02000000
189,0,-0.33600000,-0.14900000,0.93000000,0.22000000,0.12000000,-0.05000000,-0.02317519,-0.02183974,-0.01971786,-9.05000000,19.64000000,0.01000000
190,0,-0.33300000,-0.14600000,0.93300000,0.04000000,0.11000000,-0.14000000,-0.02313536,-0.02173021,-0.01985726,-9.05000000,19.64000000,0.01000000
191,0,-0.33800000,-0.15000000,0.92800000,0.03000000,0.12000000,-0.00000000,-0.02310508,-0.02160909,-0.01985726,-9.05000000,19.64000000,0.01000000
192,0,-0.33900000,-0.15000000,0.92900000,0.15000000,-0.01000000,0.27000000,-0.01463125,-0.02217401,-0.00460437,-9.05000000,19.64000000,0.01000000
193,0,-0.33800000,-0.14500000,0.92800000,0.10000000,-0.15000000,-0.12000000,-0.01452762,-0.02232945,-0.00472872,-9.05000000,19.64000000,0.01000000
194,0,-0.33900000,-0.14900000,0.92800000,-0.10000000,0.07000000,0.16000000,-0.01462696,-0.02225992,-0.00456979,-9.05000000,19.64000000,0.01000000
195,0,-0.33500000,-0.15000000,0.93000000,0.14000000,0.18000000,0.02000000,-0.01448812,-0.02208142,-0.00454995,-9.05000000,19.64000000,0.01000000
196,0,-0.33200000,-0.14400000,0.92900000,0.08000000,-0.02000000,0.02000000,-0.01440741,-0.02210159,-0.00452978,-9.05000000,19.64000000,0.01000000
197,0,-0.33400000,-0.14200000,0.92700000,-0.09000000,-0.10000000,-0.11000000,-0.01449786,-0.02220210,-0.00464033,-9.05000000,19.64000000,0.01000000
198,0,-0.33000000,-0.15700000,0.92600000,0.14000000,0.02000000,-0.01000000,-0.00672314,-0.02109142,-0.00519567,-9.05000000,19.64000000,0.01000000
199,0,-0.33900000,-0.14600000,0.93300000,-0.06000000,0.09000000,0.05000000,-0.00678620,-0.02099683,-0.00514312,-9.05000000,19.64000000,0.01000000
200,0,-0.33900000,-0.15400000,0.93000000,0.02000000,0.08000000,0.13000000,-0.00676624,-0.02091696,-0.00501333,-9.05000000,19.64000000,0.01000000
201,0,-0.33400000,-0.14800000,0.93100000,0.12000000,-0.09000000,-0.16000000,-0.00664643,-0.02100681,-0.00517307,-9.05000000,19.64000000,0.01000000
202,0,-0.33400000,-0.14800000,0.93100000,-0.14000000,-0.08000000,0.06000000,-0.00678700,-0.02108714,-0.00511282,-9.05000000,19.64000000,0.01000000
203,0,-0.33000000,-0.15600000,0.93000000,-0.02000000,-0.37000000,0.24000000,-0.00680700,-0.02145697,-0.00487293,-9.05000000,19.64000000,0.01000000
204,0,-0.33200000,-0.15100000,0.93100000,-0.01000000,0.43000000,0.07000000,-0.00736311,0.00245606,-0.00098011,-9.05000000,19.64000000,0.01000000
205,0,-0.33400000,-0.14900000,0.92900000,0.02000000,-0.01000000,-0.09000000,-0.00734229,0.00244565,-0.00107380,-9.05000000,19.64000000,0.01000000
206,0,-0.33200000,-0.14900000,0.92800000,0.21000000,-0.00000000,0.04000000,-0.00713304,0.00244565,-0.00103394,-9.05000000,19.64000000,0.01000000
207,0,-0.34100000,-0.14900000,0.92900000,0.04000000,0.17000000,-0.18000000,-0.00709186,0.00262064,-0.00121923,-9.05000000,19.64000000,0.01000000
208,0,-0.33900000,-0.15200000,0.92500000,0.01000000,0.30000000,0.04000000,-0.00708183,0.00292151,-0.00117911,-9.05000000,19.64000000,0.01000000
209,0,-0.34100000,-0.14600000,0.92800000,0.11000000,-0.06000000,-0.07000000,-0.00697212,0.00286167,-0.00124893,-9.05000000,19.64000000,0.01000000
210,0,-0.33800000,-0.15200000,0.93300000,-0.06000000,-0.10000000,0.10000000,-0.01035480,-0.00277613,0.00438887,-9.05000000,19.64000000,0.01000000
211,0,-0.33400000,-0.15100000,0.92700000,0.15000000,-0.21000000,-0.13000000,-0.01019929,-0.00299385,0.00425409,-9.06000000,19.64000000,0.01000000
212,0,-0.33400000,-0.15200000,0.93000000,0.04000000,0.09000000,-0.22000000,-0.01015948,-0.00290430,0.00403519,-9.06000000,19.64000000,0.01000000
213,0,-0.33500000,-0.15200000,0.93200000,0.25000000,0.05000000,-0.23000000,-0.00990584,-0.00285357,0.00380183,-9.06000000,19.64000000,0.01000000
214,0,-0.33400000,-0.14900000,0.93100000,0.01000000,0.07000000,-0.07000000,-0.00989590,-0.00278397,0.00373223,-9.06000000,19.64000000,0.01000000
215,0,-0.33700000,-0.15000000,0.93100000,0.16000000,0.12000000,-0.11000000,-0.00973696,-0.00266476,0.00362296,-9.06000000,19.64000000,0.01000000
216,0,-0.32800000,-0.14700000,0.92800000,0.01000000,0.04000000,-0.11000000,-0.00918185,-0.00044430,-0.00248331,-9.06000000,19.64000000,0.01000000
217,0,-0.33700000,-0.14900000,0.92600000,0.00000000,0.01000000,0.09000000,-0.00918185,-0.00043394,-0.00239009,-9.06000000,19.64000000,0.01000000
218,0,-0.33300000,-0.15000000,0.93000000,0.11000000,-0.13000000,-0.16000000,-0.00907252,-0.00056314,-0.00254910,-9.06000000,19.64000000,0.00000000
219,0,-0.34100000,-0.14900000,0.92600000,0.23000000,0.03000000,-0.23000000,-0.00883999,-0.00053281,-0.00278163,-9.06000000,19.64000000,0.00000000
220,0,-0.33600000,-0.15200000,0.92700000,0.18000000,0.14000000,-0.07000000,-0.00865900,-0.00039204,-0.00285202,-9.06000000,19.64000000,0.00000000
221,0,-0.33700000,-0.14800000,0.92700000,0.13000000,0.25000000,-0.12000000,-0.00852838,-0.00014084,-0.00297259,-9.06000000,19.64000000,-0.00000000
222,0,-0.33300000,-0.14600000,0.93300000,-0.14000000,-0.07000000,0.00000000,-0.01633625,-0.00404477,-0.00297259,-9.06000000,19.64000000,-0.00000000
223,0,-0.33500000,-0.15000000,0.92200000,-0.02000000,-0.31000000,0.11000000,-0.01635802,-0.00438228,-0.00285283,-9.06000000,19.64000000,0.00000000
224,0,-0.34100000,-0.15300000,0.93100000,0.40000000,-0.24000000,-0.04000000,-0.01593751,-0.00463459,-0.00289489,-9.06000000,19.64000000,0.00000000
225,0,-0.33100000,-0.14900000,0.93200000,0.14000000,0.04000000,0.28000000,-0.01579750,-0.00459459,-0.00261488,-9.06000000,19.64000000,0.00000000
226,0,-0.33500000,-0.14500000,0.92700000,-0.14000000,-0.31000000,0.16000000,-0.01593691,-0.00490327,-0.00245556,-9.06000000,19.64000000,0.00000000
227,0,-0.33000000,-0.15100000,0.93100000,0.18000000,-0.04000000,0.14000000,-0.01575239,-0.00494427,-0.00231205,-9.06000000,19.64000000,0.00000000
228,0,-0.33400000,-0.14700000,0.93600000,-0.21000000,0.05000000,0.17000000,-0.02754571,-0.00213634,0.00723492,-9.06000000,19.64000000,-0.00000000
229,0,-0.33300000,-0.15100000,0.92900000,0.03000000,-0.01000000,-0.12000000,-0.02751448,-0.00214675,0.00711000,-9.06000000,19.64000000,-0.00000000
230,0,-0.33900000,-0.14800000,0.93200000,0.12000000,-0.13000000,0.28000000,-0.02739159,-0.00227988,0.00739675,-9.06000000,19.64000000,-0.00000000
231,0,-0.33700000,-0.15500000,0.93300000,-0.13000000,-0.21000000,0.20000000,-0.02752205,-0.00249064,0.00759747,-9.06000000,19.64000000,-0.00000000
232,0,-0.33900000,-0.15200000,0.93000000,-0.05000000,-0.12000000,-0.19000000,-0.02757182,-0.00261007,0.00740837,-9.06000000,19.64000000,-0.00000000
233,0,-0.33800000,-0.15200000,0.93300000,-0.02000000,-0.01000000,0.29000000,-0.02759193,-0.00262012,0.00769997,-9.06000000,19.64000000,-0.00000000
234,0,-0.33700000,-0.15000000,0.93200000,-0.02000000,0.04000000,-0.06000000,-0.02870275,-0.00039848,0.00436750,-9.06000000,19.64000000,-0.00000000
235,0,-0.33300000,-0.14700000,0.93000000,-0.17000000,-0.01000000,0.04000000,-0.02888573,-0.00040924,0.00441055,-9.06000000,19.64000000,-0.00000000
236,0,-0.33300000,-0.15300000,0.92900000,-0.07000000,-0.19000000,-0.10000000,-0.02895706,-0.00060287,0.00430864,-9.07000000,19.64000000,-0.00000000
237,0,-0.33700000,-0.15200000,0.92900000,0.00000000,-0.05000000,-0.13000000,-0.02895706,-0.00065272,0.00417904,-9.07000000,19.64000000,-0.00000000
238,0,-0.34200000,-0.15100000,0.92900000,0.09000000,-0.01000000,0.16000000,-0.02886815,-0.00066260,0.00433710,-9.07000000,19.64000000,-0.00000000
239,0,-0.33300000,-0.14400000,0.93200000,0.05000000,-0.01000000,-0.04000000,-0.02881845,-0.00067254,0.00429734,-9.07000000,19.64000000,-0.00000000
240,0,-0.33700000,-0.15000000,0.92900000,-0.03000000,0.02000000,-0.07000000,-0.03048859,0.00044089,0.00040034,-9.07000000,19.64000000,-0.00000000
241,0,-0.33500000,-0.14600000,0.93000000,-0.11000000,-0.00000000,0.07000000,-0.03060439,0.00044089,0.00047403,-9.07000000,19.64000000,-0.00000000
242,0,-0.33500000,-0.14900000,0.92900000,0.14000000,0.21000000,0.08000000,-0.03046405,0.00065140,0.00055423,-9.07000000,19.64000000,-0.00000000
243,0,-0.33600000,-0.14700000,0.92900000,0.02000000,0.25000000,0.03000000,-0.03044402,0.00090176,0.00058427,-9.07000000,19.64000000,-0.00000000
244,0,-0.33300000,-0.14700000,0.92900000,0.14000000,-0.24000000,-0.01000000,-0.03030529,0.00066393,0.00057436,-9.07000000,19.64000000,-0.00000000
245,0,-0.33300000,-0.14800000,0.92900000,0.25000000,0.14000000,-0.13000000,-0.03005677,0.00080310,0.00044513,-9.07000000,19.64000000,-0.01000000
246,0,-0.34100000,-0.14600000,0.92700000,-0.02000000,-0.12000000,-0.15000000,-0.03118234,-0.00595033,-0.00799665,-9.07000000,19.64000000,-0.01000000
247,0,-0.33700000,-0.14900000,0.93000000,0.13000000,-0.05000000,-0.03000000,-0.03104484,-0.00600322,-0.00802838,-9.07000000,19.64000000,-0.01000000
248,0,-0.33700000,-0.14900000,0.93200000,-0.02000000,0.02000000,-0.01000000,-0.03106495,-0.00598311,-0.00803844,-9.07000000,19.64000000,-0.01000000
249,0,-0.33000000,-0.14700000,0.93100000,-0.13000000,-0.07000000,-0.07000000,-0.03119340,-0.00605227,-0.00810761,-9.07000000,19.64000000,-0.01000000
250,0,-0.33700000,-0.15000000,0.93000000,0.32000000,-0.03000000,0.10000000,-0.03087675,-0.00608196,-0.00800865,-9.07000000,19.64000000,-0.01000000
251,0,-0.33700000,-0.15400000,0.92700000,-0.05000000,-0.11000000,-0.04000000,-0.03092687,-0.00619223,-0.00804875,-9.08000000,19.64000000,-0.01000000
252,0,-0.33500000,-0.15300000,0.93400000,-0.11000000,0.23000000,-0.13000000,-0.03703514,0.00657960,-0.01526761,-9.08000000,19.64000000,-0.01000000
253,0,-0.33800000,-0.15000000,0.93300000,-0.08000000,-0.01000000,0.15000000,-0.03711996,0.00656900,-0.01510856,-9.08000000,19.64000000,-0.01000000
254,0,-0.33800000,-0.15100000,0.92900000,0.09000000,0.00000000,0.00000000,-0.03703035,0.00656900,-0.01510856,-9.08000000,19.64000000,-0.01000000
255,0,-0.33500000,-0.14800000,0.93000000,-0.11000000,0.17000000,0.17000000,-0.03714111,0.00674018,-0.01493738,-9.08000000,19.64000000,-0.01000000
256,0,-0.33600000,-0.15300000,0.92800000,0.11000000,-0.13000000,0.10000000,-0.03703221,0.00661148,-0.01483838,-9.08000000,19.64000000,-0.01000000
257,0,-0.34100000,-0.15200000,0.93100000,0.11000000,-0.12000000,0.17000000,-0.03692024,0.00648933,-0.01466533,-9.08000000,19.64000000,-0.01000000
258,0,-0.33600000,-0.15000000,0.93100000,0.18000000,0.12000000,-0.13000000,-0.02689970,0.01316969,-0.02190238,-9.08000000,19.64000000,-0.01000000
259,0,-0.33100000,-0.14800000,0.92800000,0.01000000,0.14000000,0.09000000,-0.02688918,0.01331703,-0.02180766,-9.08000000,19.64000000,-0.01000000
260,0,-0.33400000,-0.15100000,0.92800000,-0.07000000,0.04000000,0.14000000,-0.02695851,0.01335665,-0.02166899,-9.08000000,19.64000000,-0.01000000
261,0,-0.34000000,-0.15100000,0.92700000,-0.38000000,-0.04000000,0.04000000,-0.02733381,0.01331715,-0.02162949,-9.08000000,19.64000000,-0.01000000
262,0,-0.33300000,-0.14700000,0.93000000,-0.04000000,-0.15000000,0.14000000,-0.02737331,0.01316904,-0.02149125,-9.08000000,19.64000000,-0.01000000
263,0,-0.33600000,-0.15200000,0.93300000,-0.06000000,0.25000000,-0.13000000,-0.02743531,0.01342739,-0.02162560,-9.08000000,19.64000000,-0.01000000
264,0,-0.33700000,-0.15500000,0.92600000,0.19000000,-0.04000000,0.26000000,-0.01673799,0.01117532,-0.00698715,-9.08000000,19.64000000,-0.01000000
265,0,-0.32900000,-0.15100000,0.93400000,0.06000000,-0.02000000,0.14000000,-0.01667453,0.01115417,-0.00683907,-9.08000000,19.64000000,-0.01000000
266,0,-0.33700000,-0.15000000,0.93100000,-0.20000000,-0.06000000,-0.05000000,-0.01687563,0.01109384,-0.00688935,-9.08000000,19.64000000,-0.01000000
267,0,-0.33300000,-0.15100000,0.93000000,0.16000000,-0.30000000,-0.04000000,-0.01671795,0.01079819,-0.00692877,-9.08000000,19.64000000,-0.01000000
268,0,-0.33000000,-0.14700000,0.92900000,-0.11000000,0.30000000,0.19000000,-0.01682819,0.01109885,-0.00673835,-9.09000000,19.64000000,-0.00000000
269,0,-0.33700000,-0.15000000,0.93200000,0.06000000,-0.14000000,0.13000000,-0.01676802,0.01095844,-0.00660798,-9.09000000,19.64000000,-0.01000000
270,0,-0.33400000,-0.14800000,0.93300000,-0.26000000,-0.13000000,-0.04000000,-0.03123153,0.00372669,-0.00883313,-9.09000000,19.63000000,-0.01000000
271,0,-0.34000000,-0.15100000,0.92800000,-0.07000000,-0.24000000,-0.13000000,-0.03132484,0.00340674,-0.00900644,-9.09000000,19.63000000,-0.01000000
272,0,-0.32900000,-0.15000000,0.92900000,0.24000000,-0.08000000,-0.07000000,-0.03101640,0.00330393,-0.00909640,-9.09000000,19.63000000,-0.00000000
273,0,-0.33700000,-0.15200000,0.93300000,0.07000000,-0.04000000,-0.14000000,-0.03092337,0.00325077,-0.00928247,-9.09000000,19.63000000,-0.01000000
274,0,-0.33800000,-0.15000000,0.92700000,0.21000000,0.07000000,-0.01000000,-0.03065253,0.00334105,-0.00929536,-9.09000000,19.63000000,-0.01000000
275,0,-0.33900000,-0.14600000,0.93100000,0.13000000,-0.16000000,-0.07000000,-0.03048353,0.00313305,-0.00938636,-9.09000000,19.63000000,-0.01000000
276,0,-0.33800000,-0.15100000,0.93000000,0.07000000,0.14000000,0.09000000,-0.02662993,0.01084025,-0.00443173,-9.09000000,19.63000000,-0.01000000
277,0,-0.33300000,-0.15200000,0.93000000,-0.00000000,-0.17000000,0.28000000,-0.02662993,0.01059401,-0.00402615,-9.09000000,19.63000000,-0.01000000
278,0,-0.33800000,-0.15200000,0.93400000,-0.04000000,0.12000000,0.06000000,-0.02668347,0.01075461,-0.00394585,-9.09000000,19.63000000,-0.01000000
279,0,-0.33500000,-0.14800000,0.93300000,-0.03000000,-0.13000000,-0.01000000,-0.02672257,0.01058515,-0.00395889,-9.09000000,19.63000000,-0.01000000
280,0,-0.33400000,-0.14700000,0.93300000,0.19000000,-0.24000000,-0.09000000,-0.02647581,0.01027345,-0.00407578,-9.09000000,19.63000000,-0.01000000
281,0,-0.33500000,-0.14800000,0.93300000,0.04000000,-0.00000000,-0.04000000,-0.02642345,0.01027345,-0.00412814,-9.09000000,19.63000000,-0.01000000
282,0,-0.33200000,-0.15300000,0.93200000,0.05000000,-0.00000000,0.02000000,-0.02373352,0.01027345,-0.00305217,-9.09000000,19.63000000,-0.01000000
283,0,-0.33500000,-0.14800000,0.92900000,-0.05000000,-0.17000000,0.07000000,-0.02380243,0.01003916,-0.00295570,-9.09000000,19.63000000,-0.01000000
284,0,-0.33500000,-0.15200000,0.92900000,0.07000000,0.12000000,-0.07000000,-0.02370999,0.01019761,-0.00304813,-9.09000000,19.63000000,-0.01000000
285,0,-0.33500000,-0.14800000,0.92800000,-0.39000000,0.25000000,-0.15000000,-0.02421605,0.01052201,-0.00324276,-9.10000000,19.63000000,-0.01000000
286,0,-0.33900000,-0.15500000,0.93300000,-0.19000000,-0.17000000,0.22000000,-0.02445937,0.01030430,-0.00296102,-9.10000000,19.63000000,-0.01000000
287,0,-0.33200000,-0.15000000,0.93000000,-0.08000000,0.27000000,0.04000000,-0.02456245,0.01065220,-0.00290948,-9.10000000,19.63000000,-0.01000000
288,0,-0.33500000,-0.14900000,0.92800000,0.07000000,0.17000000,-0.06000000,-0.02078329,0.01983017,-0.00614877,-9.10000000,19.63000000,-0.01000000
289,0,-0.33500000,-0.14700000,0.92900000,-0.06000000,0.30000000,0.04000000,-0.02086405,0.02023396,-0.00609493,-9.10000000,19.63000000,-0.01000000
290,0,-0.33600000,-0.15000000,0.93300000,-0.03000000,-0.03000000,0.01000000,-0.02090419,0.02019382,-0.00608155,-9.10000000,19.63000000,-0.01000000
291,0,-0.33900000,-0.15000000,0.93200000,0.18000000,-0.06000000,-0.13000000,-0.02066217,0.02011315,-0.00625634,-9.10000000,19.63000000,-0.01000000
292,0,-0.33600000,-0.14700000,0.93000000,0.01000000,0.04000000,-0.02000000,-0.02064700,0.02017385,-0.00628669,-9.10000000,19.63000000,-0.01000000
293,0,-0.33800000,-0.14900000,0.93100000,0.05000000,0.21000000,-0.21000000,-0.02057574,0.02047313,-0.00658597,-9.10000000,19.63000000,-0.02000000
294,0,-0.33200000,-0.15200000,0.92700000,-0.03000000,0.11000000,0.04000000,-0.02219432,0.02640791,-0.00442786,-9.10000000,19.63000000,-0.02000000
295,0,-0.33600000,-0.14900000,0.92900000,-0.06000000,-0.15000000,0.11000000,-0.02228988,0.02616900,-0.00425266,-9.10000000,19.63000000,-0.02000000
296,0,-0.33300000,-0.15100000,0.92800000,0.38000000,0.17000000,-0.22000000,-0.02173030,0.02641934,-0.00457663,-9.10000000,19.63000000,-0.02000000
297,0,-0.33500000,-0.15100000,0.93100000,-0.13000000,-0.05000000,-0.15000000,-0.02193001,0.02634253,-0.00480706,-9.11000000,19.63000000,-0.02000000
298,0,-0.33700000,-0.15200000,0.92800000,0.22000000,-0.14000000,0.01000000,-0.02162493,0.02614838,-0.00479320,-9.11000000,19.63000000,-0.02000000
299,0,-0.33400000,-0.15200000,0.92700000,0.03000000,0.19000000,0.11000000,-0.02158220,0.02641898,-0.00463654,-9.11000000,19.63000000,-0.02000000
300,0,-0.33600000,-0.15100000,0.93100000,-0.09000000,-0.19000000,0.13000000,-0.02644360,0.01615603,0.00238548,-9.10000000,19.63000000,-0.02000000
301,0,-0.34000000,-0.14900000,0.92800000,0.05000000,-0.04000000,-0.22000000,-0.02636383,0.01609222,0.00203450,-9.10000000,19.63000000,-0.02000000
302,0,-0.33300000,-0.15000000,0.93400000,0.18000000,-0.24000000,0.07000000,-0.02612945,0.01577971,0.00212565,-9.11000000,19.63000000,-0.02000000
303,0,-0.33800000,-0.14800000,0.92600000,0.07000000,0.18000000,0.06000000,-0.02603343,0.01602662,0.00220795,-9.11000000,19.63000000,-0.02000000
304,0,-0.33500000,-0.15000000,0.92700000,-0.15000000,-0.06000000,-0.19000000,-0.02624212,0.01594315,0.00194361,-9.11000000,19.63000000,-0.02000000
305,0,-0.33300000,-0.14800000,0.92400000,-0.21000000,-0.08000000,-0.17000000,-0.02651461,0.01583934,0.00172302,-9.11000000,19.63000000,-0.02000000
306,0,-0.33900000,-0.15100000,0.93100000,-0.36000000,0.03000000,-0.17000000,-0.04681498,0.01753104,-0.00786327,-9.11000000,19.63000000,-0.02000000
307,0,-0.33600000,-0.15700000,0.92800000,0.02000000,-0.23000000,0.23000000,-0.04678859,0.01722755,-0.00755978,-9.11000000,19.63000000,-0.02000000
308,0,-0.33500000,-0.14500000,0.93300000,0.92000000,0.13000000,0.36000000,-0.04564154,0.01738963,-0.00711093,-9.11000000,19.63000000,-0.01000000
309,0,-0.33800000,-0.15400000,0.93400000,-0.00000000,0.10000000,-0.13000000,-0.04564154,0.01751364,-0.00727215,-9.11000000,19.63000000,-0.02000000
310,0,-0.33000000,-0.15000000,0.93100000,-0.73000000,-0.52000000,0.08000000,-0.04654630,0.01686915,-0.00717300,-9.11000000,19.63000000,-0.02000000
311,0,-0.33000000,-0.15400000,0.93200000,0.71000000,0.48000000,0.24000000,-0.04567039,0.01746132,-0.00687691,-9.11000000,19.63000000,-0.01000000
312,0,-0.33500000,-0.15600000,0.92900000,0.41000000,-0.07000000,0.47000000,-0.04514620,0.01737183,-0.00627602,-9.10000000,19.63000000,-0.01000000
313,0,-0.33300000,-0.14700000,0.92700000,-0.19000000,-0.13000000,0.35000000,-0.05560842,0.01021347,0.01299649,-9.10000000,19.63000000,-0.00000000
314,0,-0.34000000,-0.14900000,0.93400000,-0.42000000,-0.02000000,-0.13000000,-0.05623261,0.01018374,0.01280329,-9.11000000,19.63000000,-0.00000000
315,0,-0.33400000,-0.15100000,0.92800000,-0.46000000,0.02000000,-0.08000000,-0.05673002,0.01020537,0.01271678,-9.11000000,19.63000000,-0.00000000
316,0,-0.33500000,-0.14800000,0.92700000,0.21000000,0.13000000,-0.20000000,-0.05651801,0.01033661,0.01251487,-9.11000000,19.63000000,-0.00000000
317,0,-0.33500000,-0.15200000,0.93000000,-0.24000000,0.01000000,-0.17000000,-0.05676088,0.01034673,0.01234284,-9.11000000,19.63000000,-0.01000000
318,0,-0.33200000,-0.14900000,0.93100000,-0.63000000,0.06000000,-0.09000000,-0.05740697,0.01040827,0.01225054,-9.12000000,19.63000000,-0.01000000
319,0,-0.33800000,-0.16300000,0.93000000,0.21000000,0.18000000,0.02000000,-0.04589419,0.02027637,0.01334699,-9.12000000,19.63000000,-0.01000000
320,0,-0.33900000,-0.15100000,0.92700000,0.21000000,-0.01000000,0.22000000,-0.04567051,0.02026572,0.01358132,-9.12000000,19.62000000,-0.01000000
321,0,-0.33600000,-0.15200000,0.93000000,0.26000000,0.09000000,0.32000000,-0.04540927,0.02035615,0.01390286,-9.12000000,19.62000000,-0.01000000
322,0,-0.33600000,-0.15100000,0.92600000,0.07000000,0.20000000,-0.09000000,-0.04533593,0.02056569,0.01380856,-9.12000000,19.63000000,-0.01000000
323,0,-0.33600000,-0.15300000,0.93000000,0.04000000,0.05000000,0.18000000,-0.04524981,0.02067333,0.01419606,-9.12000000,19.62000000,-0.00000000
324,0,-0.33200000,-0.15400000,0.92900000,0.13000000,0.22000000,0.05000000,-0.04505392,0.02100485,0.01427141,-9.12000000,19.63000000,-0.00000000
325,0,-0.33400000,-0.14800000,0.92900000,0.08000000,-0.04000000,-0.02000000,-0.04074616,0.01885097,0.01319447,-9.12000000,19.62000000,-0.00000000
326,0,-0.34000000,-0.15300000,0.93000000,-0.30000000,-0.10000000,-0.18000000,-0.04107807,0.01874034,0.01299532,-9.12000000,19.62000000,-0.01000000
327,0,-0.33600000,-0.14800000,0.93000000,0.06000000,0.10000000,-0.26000000,-0.04101797,0.01884051,0.01273488,-9.12000000,19.62000000,-0.01000000
328,0,-0.33800000,-0.15500000,0.92600000,-0.02000000,-0.01000000,-0.03000000,-0.04103833,0.01883033,0.01270434,-9.12000000,19.62000000,-0.01000000
329,0,-0.33600000,-0.15500000,0.92600000,-0.22000000,-0.29000000,0.30000000,-0.04127202,0.01852227,0.01302302,-9.12000000,19.62000000,-0.01000000
330,0,-0.33500000,-0.14600000,0.92600000,0.89000000,0.19000000,-0.36000000,-0.04035102,0.01871889,0.01265048,-9.12000000,19.62000000,-0.01000000
331,0,-0.34200000,-0.15600000,0.93200000,-1.30000000,-0.10000000,-0.03000000,-0.11282260,0.01314415,0.01097806,-9.13000000,19.62000000,-0.01000000
332,0,-0.33500000,-0.15000000,0.92100000,-0.07000000,0.17000000,0.23000000,-0.11290711,0.01334938,0.01125572,-9.13000000,19.62000000,-0.01000000
333,0,-0.33800000,-0.14500000,0.93000000,0.83000000,0.11000000,0.01000000,-0.11201356,0.01346780,0.01126648,-9.12000000,19.62000000,-0.01000000
334,0,-0.33400000,-0.15600000,0.93200000,-0.48000000,-0.25000000,0.27000000,-0.11252939,0.01319914,0.01155664,-9.12000000,19.62000000,-0.01000000
335,0,-0.33300000,-0.15400000,0.92500000,0.12000000,0.03000000,-0.05000000,-0.11239872,0.01323181,0.01150219,-9.13000000,19.62000000,-0.01000000
336,0,-0.33900000,-0.15200000,0.92900000,0.17000000,0.31000000,0.06000000,-0.11222243,0.01355327,0.01156441,-9.13000000,19.62000000,-0.01000000
337,0,-0.33500000,-0.14900000,0.93000000,-0.13000000,0.01000000,-0.34000000,-0.11946156,0.01411013,-0.00736870,-9.13000000,19.63000000,-0.01000000
338,0,-0.34000000,-0.14800000,0.93300000,-0.15000000,0.28000000,-0.02000000,-0.11962476,0.01441477,-0.00739046,-9.13000000,19.63000000,-0.01000000
339,0,-0.33900000,-0.15000000,0.92800000,-0.13000000,-0.13000000,-0.21000000,-0.11975477,0.01428477,-0.00760047,-9.13000000,19.63000000,-0.01000000
340,0,-0.33300000,-0.15100000,0.92700000,0.15000000,-0.10000000,0.04000000,-0.11960669,0.01418605,-0.00756098,-9.13000000,19.63000000,-0.01000000
341,0,-0.33700000,-0.14700000,0.92800000,0.39000000,-0.02000000,-0.21000000,-0.11922050,0.01416625,-0.00776893,-9.13000000,19.63000000,-0.01000000
342,0,-0.33500000,-0.14300000,0.93300000,0.38000000,0.44000000,-0.52000000,-0.11882255,0.01462703,-0.00831350,-9.12000000,19.63000000,-0.01000000
343,0,-0.33600000,-0.16200000,0.93100000,-1.30000000,-0.66000000,0.52000000,-0.19088655,-0.02195931,0.02051211,-9.13000000,19.63000000,-0.01000000
344,0,-0.33000000,-0.14400000,0.92400000,1.40000000,-0.06000000,0.29000000,-0.18935634,-0.02202489,0.02082908,-9.13000000,19.62000000,-0.01000000
345,0,-0.34200000,-0.15700000,0.93100000,-0.22000000,-0.10000000,0.15000000,-0.18957813,-0.02212571,0.02098030,-9.12000000,19.63000000,-0.00000000
346,0,-0.33100000,-0.15100000,0.92700000,-0.11000000,-0.13000000,0.03000000,-0.18968747,-0.02225494,0.02101012,-9.12000000,19.63000000,-0.00000000
347,0,-0.34500000,-0.15200000,0.93200000,-0.03000000,0.11000000,0.22000000,-0.18971732,-0.02214548,0.02122903,-9.12000000,19.62000000,-0.00000000
348,0,-0.33600000,-0.14600000,0.93200000,0.44000000,-0.33000000,0.33000000,-0.18927479,-0.02247738,0.02156093,-9.12000000,19.63000000,0.00000000
349,0,-0.34000000,-0.14700000,0.93200000,0.24000000,0.29000000,-0.07000000,-0.17575077,-0.00613585,0.01761642,-9.12000000,19.63000000,0.00000000
350,0,-0.33700000,-0.14400000,0.93000000,-0.53000000,0.18000000,-0.34000000,-0.17634788,-0.00593306,0.01723336,-9.12000000,19.63000000,0.00000000
351,0,-0.33000000,-0.15800000,0.92800000,-0.65000000,-0.34000000,0.31000000,-0.17702471,-0.00628709,0.01755616,-9.13000000,19.63000000,-0.00000000
352,0,-0.34000000,-0.14900000,0.92400000,0.92000000,0.53000000,-0.31000000,-0.17605862,-0.00573054,0.01723063,-9.12000000,19.63000000,-0.00000000
353,0,-0.34100000,-0.15600000,0.93300000,-0.94000000,-0.40000000,0.32000000,-0.17708471,-0.00616718,0.01757994,-9.13000000,19.63000000,-0.00000000
354,0,-0.33200000,-0.15200000,0.92700000,0.38000000,0.06000000,0.15000000,-0.17667371,-0.00610228,0.01774217,-9.13000000,19.63000000,-0.00000000
355,0,-0.34100000,-0.15400000,0.93600000,0.68000000,-0.13000000,0.54000000,-0.13906186,-0.01329278,0.04761041,-9.12000000,19.62000000,0.01000000
356,0,-0.33800000,-0.14800000,0.93200000,0.28000000,0.10000000,0.88000000,-0.13876156,-0.01318553,0.04855421,-9.11000000,19.62000000,0.01000000
357,0,-0.33700000,-0.15000000,0.93100000,-0.11000000,-0.37000000,0.97000000,-0.13887306,-0.01356057,0.04953743,-9.11000000,19.62000000,0.02000000
358,0,-0.33500000,-0.15400000,0.93100000,-1.81000000,-0.32000000,2.69000000,-0.14068959,-0.01388172,0.05223713,-9.11000000,19.63000000,0.03000000
359,0,-0.33600000,-0.15000000,0.93300000,-4.04000000,-1.05000000,3.87000000,-0.14481736,-0.01495454,0.05619121,-9.13000000,19.63000000,0.07000000
360,0,-0.33400000,-0.15400000,0.92500000,-5.36000000,-3.75000000,5.65000000,-0.15022097,-0.01873505,0.06188718,-9.16000000,19.61000000,0.13000000
361,0,-0.34400000,-0.14400000,0.92900000,-3.47000000,-2.79000000,1.45000000,-0.34309517,-0.17381257,0.14248302,-9.19000000,19.58000000,0.17000000
362,0,-0.33000000,-0.15300000,0.92700000,-0.95000000,0.27000000,-1.29000000,-0.34413240,-0.17351778,0.14107457,-9.21000000,19.57000000,0.18000000
363,0,-0.33600000,-0.15800000,0.93100000,-1.72000000,-0.09000000,0.19000000,-0.34605298,-0.17361827,0.14128673,-9.22000000,19.57000000,0.17000000
364,0,-0.33400000,-0.15600000,0.92700000,-0.42000000,-0.32000000,0.18000000,-0.34650523,-0.17396285,0.14148055,-9.23000000,19.56000000,0.17000000
365,0,-0.33600000,-0.16000000,0.92800000,0.50000000,0.38000000,0.15000000,-0.34599580,-0.17357568,0.14163338,-9.23000000,19.56000000,0.17000000
366,0,-0.33900000,-0.15400000,0.92800000,-0.25000000,-0.08000000,0.22000000,-0.34625153,-0.17365752,0.14185843,-9.23000000,19.57000000,0.17000000
367,0,-0.33000000,-0.15800000,0.92700000,0.41000000,-0.25000000,0.50000000,-0.32327184,-0.18766952,0.16988244,-9.22000000,19.57000000,0.18000000
368,0,-0.33000000,-0.15500000,0.92900000,1.04000000,-0.17000000,1.18000000,-0.32213660,-0.18785509,0.17117050,-9.21000000,19.57000000,0.19000000
369,0,-0.32700000,-0.15600000,0.93000000,0.31000000,0.16000000,1.65000000,-0.32182637,-0.18769497,0.17282173,-9.20000000,19.57000000,0.20000000
370,0,-0.34200000,-0.14300000,0.92700000,0.45000000,-0.03000000,-0.37000000,-0.32136037,-0.18772604,0.17243858,-9.20000000,19.58000000,0.20000000
371,0,-0.32900000,-0.15300000,0.93100000,-1.88000000,-1.04000000,0.16000000,-0.32331348,-0.18880648,0.17260480,-9.21000000,19.57000000,0.20000000
372,0,-0.33700000,-0.16100000,0.92800000,-0.53000000,-0.19000000,0.34000000,-0.32390757,-0.18901946,0.17298591,-9.22000000,19.57000000,0.21000000
373,0,-0.33100000,-0.15400000,0.93200000,0.61000000,-0.10000000,0.01000000,-0.29018003,-0.19454856,0.17353882,-9.22000000,19.57000000,0.21000000
374,0,-0.33400000,-0.15200000,0.93100000,0.12000000,0.02000000,-0.23000000,-0.29004770,-0.19452651,0.17328518,-9.21000000,19.57000000,0.21000000
375,0,-0.32900000,-0.15800000,0.92700000,-1.15000000,-0.19000000,0.26000000,-0.29123667,-0.19472294,0.17355399,-9.22000000,19.57000000,0.21000000
376,0,-0.34200000,-0.14300000,0.92100000,-0.38000000,-0.36000000,0.11000000,-0.29164685,-0.19511154,0.17367273,-9.22000000,19.57000000,0.21000000
377,0,-0.33200000,-0.16500000,0.92900000,0.63000000,-0.57000000,0.34000000,-0.29099385,-0.19570235,0.17402514,-9.22000000,19.56000000,0.21000000
378,0,-0.33600000,-0.15100000,0.92600000,0.78000000,-0.31000000,0.18000000,-0.29021010,-0.19601383,0.17420600,-9.22000000,19.56000000,0.21000000
379,0,-0.33400000,-0.14700000,0.93100000,2.19000000,-0.42000000,-1.68000000,-0.16912220,-0.21923617,0.08131665,-9.20000000,19.56000000,0.20000000
380,0,-0.32900000,-0.15400000,0.93300000,1.32000000,-0.39000000,-0.74000000,-0.16753214,-0.21970596,0.08042526,-9.19000000,19.55000000,0.19000000
381,0,-0.33300000,-0.15600000,0.92600000,2.20000000,0.02000000,0.56000000,-0.16512646,-0.21968409,0.08103761,-9.17000000,19.55000000,0.20000000
382,0,-0.33300000,-0.15400000,0.93200000,2.52000000,0.91000000,0.73000000,-0.16201759,-0.21856144,0.08193820,-9.15000000,19.56000000,0.20000000
383,0,-0.33100000,-0.14500000,0.93000000,1.57000000,1.14000000,0.84000000,-0.16024503,-0.21727437,0.08288657,-9.12000000,19.57000000,0.21000000
384,0,-0.32700000,-0.15600000,0.92800000,0.22000000,-0.55000000,1.95000000,-0.16001564,-0.21784785,0.08491985,-9.11000000,19.57000000,0.22000000
385,0,-0.33900000,-0.15400000,0.92500000,1.52000000,-0.26000000,1.54000000,-0.07522926,-0.23235079,0.17082184,-9.10000000,19.57000000,0.24000000
386,0,-0.33900000,-0.14700000,0.93000000,1.68000000,-0.37000000,1.29000000,-0.07348712,-0.23273447,0.17215955,-9.08000000,19.57000000,0.26000000
387,0,-0.33600000,-0.14700000,0.93300000,0.30000000,-0.38000000,0.35000000,-0.07318497,-0.23311720,0.17251206,-9.06000000,19.57000000,0.27000000
388,0,-0.33600000,-0.15300000,0.93200000,-1.22000000,-0.38000000,-0.03000000,-0.07441402,-0.23350002,0.17248184,-9.07000000,19.57000000,0.27000000
389,0,-0.33300000,-0.15400000,0.92600000,-0.94000000,-0.62000000,-0.27000000,-0.07541658,-0.23416128,0.17219387,-9.08000000,19.56000000,0.27000000
390,0,-0.33400000,-0.15300000,0.92800000,0.20000000,-0.08000000,0.12000000,-0.07521776,-0.23424081,0.17231316,-9.09000000,19.56000000,0.27000000
391,0,-0.33500000,-0.15000000,0.92900000,0.43000000,0.11000000,-0.30000000,-0.05139443,-0.22814647,0.15569223,-9.08000000,19.56000000,0.27000000
392,0,-0.34000000,-0.14700000,0.93000000,-0.57000000,-0.21000000,-0.42000000,-0.05198484,-0.22836398,0.15525720,-9.09000000,19.56000000,0.26000000
393,0,-0.33200000,-0.15200000,0.92600000,-0.26000000,-0.34000000,-0.27000000,-0.05224602,-0.22870553,0.15498597,-9.10000000,19.56000000,0.26000000
394,0,-0.33800000,-0.14800000,0.92700000,-0.24000000,-0.15000000,-0.31000000,-0.05248586,-0.22885543,0.15467618,-9.10000000,19.56000000,0.26000000
395,0,-0.33500000,-0.15100000,0.93000000,-0.33000000,-0.07000000,0.09000000,-0.05281233,-0.22892468,0.15476522,-9.10000000,19.56000000,0.25000000
396,0,-0.33700000,-0.15200000,0.92600000,-0.12000000,0.22000000,0.04000000,-0.05293141,-0.22870635,0.15480491,-9.11000000,19.56000000,0.25000000
397,0,-0.32800000,-0.15200000,0.93000000,0.30000000,0.09000000,0.13000000,-0.03625069,-0.22370214,0.16203323,-9.11000000,19.56000000,0.25000000
398,0,-0.33900000,-0.14900000,0.92900000,0.16000000,0.18000000,0.02000000,-0.03608279,-0.22351325,0.16205421,-9.11000000,19.56000000,0.25000000
399,0,-0.33300000,-0.14800000,0.93100000,-0.19000000,-0.29000000,-0.00000000,-0.03628054,-0.22381508,0.16205421,-9.10000000,19.56000000,0.26000000
400,0,-0.33700000,-0.15400000,0.93200000,0.03000000,-0.07000000,-0.14000000,-0.03625055,-0.22388507,0.16191424,-9.10000000,19.56000000,0.26000000
401,0,-0.33700000,-0.15300000,0.92600000,-0.28000000,0.15000000,-0.12000000,-0.03653182,-0.22373438,0.16179370,-9.11000000,19.56000000,0.25000000
402,0,-0.33400000,-0.15200000,0.92800000,0.30000000,-0.06000000,0.28000000,-0.03623110,-0.22379453,0.16207437,-9.11000000,19.56000000,0.25000000
403,0,-0.33300000,-0.14700000,0.92900000,0.33000000,0.20000000,-0.08000000,-0.01761598,-0.21251263,0.15756161,-9.10000000,19.56000000,0.25000000
404,0,-0.33200000,-0.14800000,0.93600000,0.21000000,0.26000000,0.06000000,-0.01739460,-0.21223855,0.15762486,-9.10000000,19.56000000,0.25000000
405,0,-0.33400000,-0.15100000,0.92700000,-0.03000000,0.28000000,-0.09000000,-0.01742471,-0.21195755,0.15753454,-9.10000000,19.56000000,0.25000000
406,0,-0.33100000,-0.15500000,0.92900000,-0.24000000,-0.03000000,-0.12000000,-0.01766312,-0.21198735,0.15741534,-9.11000000,19.56000000,0.25000000
407,0,-0.32700000,-0.15000000,0.92800000,0.02000000,0.06000000,-0.50000000,-0.01764241,-0.21192523,0.15689768,-9.11000000,19.56000000,0.25000000
408,0,-0.33600000,-0.15200000,0.92800000,-0.33000000,-0.17000000,-0.12000000,-0.01797982,-0.21209904,0.15677499,-9.12000000,19.56000000,0.24000000
409,0,-0.33000000,-0.15100000,0.93100000,0.10000000,-0.08000000,0.02000000,-0.01243407,-0.21653564,0.15788414,-9.12000000,19.56000000,0.24000000
410,0,-0.33500000,-0.14900000,0.93500000,-0.03000000,0.04000000,-0.09000000,-0.01246675,-0.21649206,0.15778609,-9.12000000,19.56000000,0.24000000
411,0,-0.33500000,-0.14400000,0.93200000,-0.02000000,-0.28000000,0.12000000,-0.01248678,-0.21677240,0.15790623,-9.12000000,19.56000000,0.24000000
412,0,-0.33900000,-0.15000000,0.92400000,-0.04000000,0.07000000,0.13000000,-0.01252634,-0.21670317,0.15803481,-9.12000000,19.56000000,0.24000000
413,0,-0.33200000,-0.15600000,0.93100000,-0.10000000,-0.35000000,0.09000000,-0.01262589,-0.21705159,0.15812441,-9.12000000,19.56000000,0.24000000
414,0,-0.33400000,-0.15300000,0.93200000,0.21000000,0.29000000,0.02000000,-0.01241428,-0.21675937,0.15814456,-9.12000000,19.56000000,0.24000000
415,0,-0.33600000,-0.15600000,0.92800000,-0.03000000,0.07000000,0.11000000,-0.01408201,-0.21286800,0.16425957,-9.12000000,19.56000000,0.24000000
416,0,-0.33200000,-0.15100000,0.93200000,-0.17000000,-0.01000000,0.39000000,-0.01425903,-0.21287842,0.16466566,-9.12000000,19.56000000,0.24000000
417,0,-0.33700000,-0.15800000,0.93400000,0.43000000,-0.03000000,-0.09000000,-0.01383435,-0.21290805,0.16457678,-9.11000000,19.56000000,0.24000000
418,0,-0.33100000,-0.16000000,0.93100000,0.01000000,-0.02000000,-0.02000000,-0.01382450,-0.21292775,0.16455708,-9.12000000,19.56000000,0.24000000
419,0,-0.33100000,-0.15000000,0.92500000,-0.02000000,-0.04000000,-0.08000000,-0.01384422,-0.21296719,0.16447818,-9.12000000,19.56000000,0.24000000
420,0,-0.33400000,-0.15300000,0.93200000,-0.05000000,-0.10000000,-0.17000000,-0.01390047,-0.21307969,0.16428694,-9.12000000,19.56000000,0.24000000
421,0,-0.32900000,-0.14600000,0.93000000,0.20000000,0.17000000,-0.01000000,-0.00262997,-0.20349977,0.16372341,-9.12000000,19.56000000,0.24000000
422,0,-0.33700000,-0.15000000,0.92100000,-0.03000000,-0.39000000,0.28000000,-0.00266696,-0.20398053,0.16406858,-9.12000000,19.56000000,0.23000000
423,0,-0.33600000,-0.15500000,0.93300000,0.13000000,0.03000000,0.17000000,-0.00252338,-0.20394740,0.16425633,-9.12000000,19.56000000,0.23000000
424,0,-0.33600000,-0.15000000,0.93000000,0.22000000,0.22000000,0.11000000,-0.00228407,-0.20370809,0.16437599,-9.12000000,19.56000000,0.24000000
425,0,-0.33100000,-0.15300000,0.92800000,-0.15000000,0.29000000,0.11000000,-0.00244144,-0.20340384,0.16449139,-9.12000000,19.56000000,0.24000000
426,0,-0.33700000,-0.14800000,0.92700000,-0.01000000,-0.05000000,-0.13000000,-0.00245150,-0.20345414,0.16436061,-9.13000000,19.56000000,0.23000000
427,0,-0.33700000,-0.15200000,0.93100000,0.04000000,0.16000000,-0.14000000,-0.00025045,-0.19464995,0.15665695,-9.12000000,19.56000000,0.23000000
428,0,-0.32900000,-0.15400000,0.93100000,-0.09000000,0.14000000,-0.11000000,-0.00034951,-0.19449586,0.15653588,-9.13000000,19.56000000,0.23000000
429,0,-0.33000000,-0.15200000,0.93600000,0.23000000,-0.15000000,-0.03000000,-0.00010256,-0.19465692,0.15650367,-9.13000000,19.56000000,0.23000000
430,0,-0.32900000,-0.15400000,0.93100000,0.34000000,-0.29000000,-0.02000000,0.00024969,-0.19495737,0.15648295,-9.12000000,19.55000000,0.23000000
431,0,-0.33100000,-0.15300000,0.92700000,-0.05000000,0.09000000,0.05000000,0.00019796,-0.19486425,0.15653468,-9.12000000,19.55000000,0.23000000
432,0,-0.34000000,-0.15100000,0.92700000,0.06000000,0.09000000,0.16000000,0.00025821,-0.19477389,0.15669533,-9.13000000,19.55000000,0.23000000
433,0,-0.33900000,-0.14700000,0.93100000,0.10000000,0.29000000,-0.18000000,0.00036288,-0.19447032,0.15650692,-9.12000000,19.56000000,0.23000000
434,0,-0.33100000,-0.14800000,0.92700000,-0.12000000,0.03000000,-0.01000000,-0.00662792,-0.19272262,0.15592435,-9.12000000,19.55000000,0.23000000
435,0,-0.33600000,-0.15200000,0.93600000,-0.14000000,0.05000000,-0.07000000,-0.00677213,-0.19267112,0.15585224,-9.13000000,19.55000000,0.23000000
436,0,-0.33200000,-0.14700000,0.93300000,0.24000000,0.29000000,-0.12000000,-0.00653573,-0.19238547,0.15573404,-9.13000000,19.56000000,0.23000000
437,0,-0.33500000,-0.14700000,0.93100000,0.20000000,-0.16000000,0.04000000,-0.00633668,-0.19254471,0.15577385,-9.12000000,19.56000000,0.23000000
438,0,-0.33700000,-0.15600000,0.93100000,-0.06000000,-0.07000000,-0.18000000,-0.00640312,-0.19262222,0.15557454,-9.13000000,19.56000000,0.23000000
439,0,-0.33200000,-0.15300000,0.93200000,-0.03000000,0.06000000,0.08000000,-0.00643777,-0.19255292,0.15566694,-9.13000000,19.56000000,0.23000000
440,0,-0.33100000,-0.14900000,0.93300000,-0.19000000,0.07000000,-0.06000000,-0.01712716,-0.18861472,0.15229134,-9.13000000,19.56000000,0.23000000
441,0,-0.33300000,-0.15200000,0.93300000,-0.09000000,-0.04000000,-0.08000000,-0.01722129,-0.18865655,0.15220767,-9.13000000,19.56000000,0.23000000
442,0,-0.33400000,-0.15600000,0.92800000,-0.18000000,0.06000000,-0.04000000,-0.01740095,-0.18859667,0.15216775,-9.13000000,19.56000000,0.23000000
443,0,-0.33600000,-0.15200000,0.93000000,-0.32000000,-0.17000000,0.28000000,-0.01772264,-0.18876756,0.15244923,-9.13000000,19.56000000,0.23000000
444,0,-0.33500000,-0.14900000,0.92900000,0.37000000,0.29000000,0.15000000,-0.01735210,-0.18847714,0.15259945,-9.13000000,19.56000000,0.23000000
445,0,-0.33300000,-0.15000000,0.93300000,0.01000000,-0.03000000,-0.01000000,-0.01734209,-0.18850717,0.15258944,-9.13000000,19.56000000,0.23000000
446,0,-0.33500000,-0.15000000,0.93300000,0.00000000,0.05000000,0.06000000,-0.01734209,-0.18572179,0.15593189,-9.13000000,19.56000000,0.23000000
447,0,-0.33600000,-0.15100000,0.93000000,-0.07000000,0.07000000,-0.07000000,-0.01742217,-0.18564171,0.15585181,-9.13000000,19.56000000,0.23000000
448,0,-0.33300000,-0.15100000,0.93100000,0.11000000,0.04000000,-0.14000000,-0.01730634,-0.18559959,0.15570439,-9.13000000,19.56000000,0.23000000
449,0,-0.33400000,-0.15300000,0.93000000,-0.03000000,0.37000000,0.02000000,-0.01733695,-0.18522208,0.15572480,-9.13000000,19.56000000,0.23000000
450,0,-0.33300000,-0.15300000,0.93000000,-0.12000000,-0.14000000,-0.31000000,-0.01745673,-0.18536182,0.15541538,-9.13000000,19.56000000,0.23000000
451,0,-0.33100000,-0.14800000,0.93400000,0.23000000,0.18000000,0.06000000,-0.01722667,-0.18518177,0.15547540,-9.13000000,19.56000000,0.23000000
452,0,-0.33200000,-0.14900000,0.93200000,-0.25000000,-0.03000000,-0.02000000,-0.03101748,-0.18683667,0.15437213,-9.13000000,19.56000000,0.23000000
453,0,-0.33600000,-0.14900000,0.93100000,-0.47000000,-0.02000000,0.11000000,-0.03151046,-0.18685765,0.15448751,-9.13000000,19.56000000,0.23000000
454,0,-0.33300000,-0.15400000,0.92800000,0.67000000,0.49000000,-0.05000000,-0.03084715,-0.18637254,0.15443801,-9.13000000,19.56000000,0.23000000
455,0,-0.33500000,-0.15200000,0.93200000,-0.06000000,-0.01000000,0.03000000,-0.03090641,-0.18638241,0.15446764,-9.13000000,19.56000000,0.23000000
456,0,-0.33800000,-0.14800000,0.93000000,-0.07000000,-0.03000000,-0.30000000,-0.03097733,-0.18641281,0.15416370,-9.13000000,19.56000000,0.23000000
457,0,-0.33500000,-0.15100000,0.93400000,-0.12000000,0.03000000,0.09000000,-0.03109768,-0.18638272,0.15425396,-9.13000000,19.56000000,0.23000000
458,0,-0.33700000,-0.14800000,0.93200000,0.24000000,-0.19000000,-0.24000000,-0.01752982,-0.19712394,0.14068610,-9.13000000,19.56000000,0.23000000
459,0,-0.33800000,-0.15400000,0.93300000,-0.18000000,-0.12000000,0.48000000,-0.01771730,-0.19724892,0.14118603,-9.13000000,19.56000000,0.23000000
460,0,-0.33300000,-0.15100000,0.92400000,0.49000000,0.08000000,0.12000000,-0.01721934,-0.19716762,0.14130798,-9.13000000,19.56000000,0.23000000
461,0,-0.33000000,-0.15200000,0.93500000,-0.13000000,-0.02000000,-0.15000000,-0.01734940,-0.19718763,0.14115790,-9.12000000,19.56000000,0.23000000
462,0,-0.33400000,-0.14900000,0.92800000,-0.39000000,0.06000000,-0.13000000,-0.01773663,-0.19712806,0.14102883,-9.13000000,19.55000000,0.23000000
463,0,-0.33400000,-0.15300000,0.93000000,0.30000000,-0.14000000,0.29000000,-0.01743955,-0.19726670,0.14131600,-9.13000000,19.55000000,0.23000000
464,0,-0.32700000,-0.14700000,0.93000000,0.33000000,0.14000000,-0.09000000,0.00088140,-0.18949417,0.13631938,-9.12000000,19.56000000,0.23000000
465,0,-0.33000000,-0.15500000,0.93300000,-0.76000000,-0.02000000,-0.47000000,0.00009057,-0.18951498,0.13583032,-9.13000000,19.55000000,0.23000000
466,0,-0.32700000,-0.15700000,0.92400000,-0.35000000,-0.60000000,0.58000000,-0.00030175,-0.19018753,0.13648044,-9.14000000,19.55000000,0.23000000
467,0,-0.33600000,-0.15700000,0.92900000,1.26000000,0.30000000,0.14000000,0.00115956,-0.18983960,0.13664281,-9.13000000,19.55000000,0.23000000
468,0,-0.33400000,-0.14500000,0.93400000,0.26000000,-0.21000000,0.73000000,0.00142552,-0.19005441,0.13738954,-9.12000000,19.55000000,0.24000000
469,0,-0.33500000,-0.15200000,0.92800000,0.31000000,-0.05000000,0.51000000,0.00173686,-0.19010463,0.13790175,-9.12000000,19.55000000,0.24000000
470,0,-0.33500000,-0.14900000,0.93000000,0.32000000,-0.34000000,0.86000000,0.01943350,-0.20890731,0.18546147,-9.11000000,19.55000000,0.25000000
471,0,-0.32600000,-0.15600000,0.93100000,-0.61000000,1.57000000,1.25000000,0.01878945,-0.20724967,0.18678125,-9.11000000,19.56000000,0.25000000
472,0,-0.34300000,-0.15100000,0.92700000,-1.83000000,-0.15000000,-0.16000000,0.01690748,-0.20740393,0.18661670,-9.12000000,19.57000000,0.25000000
473,0,-0.32400000,-0.15300000,0.92900000,-2.04000000,-1.37000000,-0.27000000,0.01486742,-0.20877397,0.18634670,-9.15000000,19.56000000,0.25000000
474,0,-0.34500000,-0.15300000,0.92900000,-0.11000000,0.10000000,0.12000000,0.01475804,-0.20867454,0.18646601,-9.16000000,19.55000000,0.25000000
475,0,-0.33800000,-0.15000000,0.93100000,0.44000000,0.26000000,-0.15000000,0.01519701,-0.20841515,0.18631637,-9.15000000,19.55000000,0.25000000
476,0,-0.34100000,-0.14900000,0.93400000,-0.07000000,-0.13000000,0.11000000,0.01124199,-0.21576019,0.19253140,-9.15000000,19.55000000,0.25000000
477,0,-0.33300000,-0.15400000,0.92700000,-0.31000000,-0.19000000,-0.05000000,0.01091498,-0.21596062,0.19247866,-9.16000000,19.55000000,0.25000000
478,0,-0.33200000,-0.15200000,0.93100000,-0.23000000,-0.14000000,-0.04000000,0.01068563,-0.21610022,0.19243877,-9.16000000,19.55000000,0.25000000
479,0,-0.33200000,-0.15300000,0.93000000,-0.15000000,0.07000000,-0.09000000,0.01053094,-0.21602803,0.19234595,-9.16000000,19.55000000,0.25000000
480,0,-0.33200000,-0.15500000,0.92700000,0.17000000,0.21000000,0.02000000,0.01070269,-0.21581587,0.19236616,-9.17000000,19.55000000,0.25000000
481,0,-0.33100000,-0.14700000,0.93300000,0.12000000,0.09000000,-0.04000000,0.01082169,-0.21572662,0.19232649,-9.16000000,19.55000000,0.25000000
482,0,-0.33300000,-0.14800000,0.92800000,-0.16000000,-0.10000000,-0.07000000,0.00195651,-0.22126736,0.18844798,-9.17000000,19.55000000,0.25000000
483,0,-0.33700000,-0.15600000,0.93200000,-0.11000000,0.04000000,0.19000000,0.00184073,-0.22122526,0.18864795,-9.17000000,19.54000000,0.25000000
484,0,-0.33000000,-0.15000000,0.92700000,0.25000000,0.06000000,-0.01000000,0.00209080,-0.22116525,0.18863794,-9.17000000,19.54000000,0.25000000
485,0,-0.33600000,-0.15600000,0.92600000,-0.05000000,0.12000000,-0.31000000,0.00204107,-0.22104590,0.18832964,-9.17000000,19.55000000,0.25000000
486,0,-0.32500000,-0.16000000,0.94700000,-0.54000000,0.62000000,-0.23000000,0.00149359,-0.22041731,0.18809645,-9.17000000,19.55000000,0.25000000
487,0,-0.33000000,-0.15100000,0.92900000,-0.09000000,0.33000000,-0.30000000,0.00139689,-0.22006275,0.18777412,-9.17000000,19.54000000,0.24000000
488,0,-0.33100000,-0.15100000,0.93200000,0.17000000,0.06000000,0.10000000,0.01081789,-0.21673769,0.19331589,-9.17000000,19.54000000,0.24000000
489,0,-0.34000000,-0.15300000,0.92700000,0.55000000,0.18000000,0.02000000,0.01138666,-0.21655155,0.19333657,-9.17000000,19.55000000,0.24000000
490,0,-0.33400000,-0.15100000,0.93500000,0.00000000,0.36000000,-0.17000000,0.01138666,-0.21618742,0.19316462,-9.17000000,19.55000000,0.24000000
491,0,-0.33800000,-0.15000000,0.92800000,-0.16000000,0.22000000,0.27000000,0.01122643,-0.21596710,0.19343501,-9.17000000,19.55000000,0.24000000
492,0,-0.33500000,-0.15400000,0.92900000,0.10000000,-0.16000000,-0.06000000,0.01132519,-0.21612512,0.19337576,-9.17000000,19.55000000,0.24000000
493,0,-0.33700000,-0.15300000,0.93300000,-0.20000000,-0.01000000,0.09000000,0.01112452,-0.21613515,0.19346606,-9.17000000,19.55000000,0.24000000
494,0,-0.33300000,-0.15200000,0.93100000,-0.01000000,0.06000000,0.04000000,0.01055768,-0.21273413,0.19573340,-9.17000000,19.55000000,0.24000000
495,0,-0.33300000,-0.15000000,0.92800000,0.12000000,-0.03000000,0.08000000,0.01069974,-0.21276965,0.19582811,-9.17000000,19.55000000,0.24000000
496,0,-0.33100000,-0.15500000,0.93000000,-0.21000000,-0.43000000,0.04000000,0.01048658,-0.21320612,0.19586871,-9.17000000,19.55000000,0.24000000
497,0,-0.33400000,-0.15300000,0.92600000,-0.10000000,0.03000000,-0.03000000,0.01038732,-0.21317634,0.19583893,-9.17000000,19.55000000,0.24000000
498,0,-0.33800000,-0.14900000,0.93100000,-0.11000000,0.13000000,-0.28000000,0.01027868,-0.21304795,0.19556240,-9.18000000,19.55000000,0.24000000
499,0,-0.33500000,-0.15300000,0.93100000,0.23000000,-0.10000000,-0.01000000,0.01050781,-0.21314757,0.19555244,-9.18000000,19.55000000,0.24000000
500,0,-0.33500000,-0.14400000,0.93100000,0.03000000,0.23000000,-0.14000000,0.01216358,-0.20045328,0.18782548,-9.18000000,19.54000000,0.24000000
501,0,-0.33500000,-0.15200000,0.92700000,0.06000000,0.08000000,-0.13000000,0.01222720,-0.20036845,0.18768763,-9.18000000,19.54000000,0.24000000
502,0,-0.33000000,-0.15600000,0.93000000,-0.01000000,0.19000000,-0.01000000,0.01221722,-0.20017872,0.18767764,-9.18000000,19.55000000,0.24000000
503,0,-0.33500000,-0.15900000,0.92800000,0.00000000,0.12000000,0.05000000,0.01221722,-0.20006012,0.18772706,-9.18000000,19.55000000,0.24000000
504,0,-0.33500000,-0.15000000,0.92800000,0.20000000,-0.08000000,-0.10000000,0.01241503,-0.20013924,0.18762815,-9.18000000,19.55000000,0.24000000
505,0,-0.34000000,-0.15200000,0.93000000,-0.14000000,-0.23000000,-0.24000000,0.01226979,-0.20037786,0.18737916,-9.18000000,19.54000000,0.24000000
506,0,-0.34300000,-0.15200000,0.92600000,0.17000000,0.10000000,-0.06000000,0.02173638,-0.19480927,0.18403801,-9.18000000,19.55000000,0.24000000
507,0,-0.32900000,-0.15300000,0.92900000,0.01000000,0.28000000,-0.19000000,0.02174720,-0.19450650,0.18383256,-9.18000000,19.55000000,0.24000000
508,0,-0.34200000,-0.15000000,0.92500000,0.03000000,-0.08000000,-0.20000000,0.02177697,-0.19458589,0.18363408,-9.19000000,19.55000000,0.24000000
509,0,-0.32700000,-0.16000000,0.93300000,-0.12000000,-0.00000000,-0.07000000,0.02165822,-0.19458589,0.18356481,-9.19000000,19.54000000,0.24000000
510,0,-0.33400000,-0.15000000,0.92900000,0.26000000,0.05000000,0.06000000,0.02191451,-0.19453660,0.18362396,-9.19000000,19.54000000,0.24000000
511,0,-0.33500000,-0.15100000,0.92600000,0.21000000,0.19000000,0.00000000,0.02213403,-0.19433799,0.18362396,-9.19000000,19.55000000,0.24000000
512,0,-0.33700000,-0.15500000,0.92800000,-0.35000000,-0.28000000,0.11000000,0.00244079,-0.21009259,0.18981326,-9.19000000,19.55000000,0.24000000
513,0,-0.33200000,-0.15600000,0.93100000,0.06000000,0.05000000,-0.19000000,0.00250316,-0.21004061,0.18961573,-9.19000000,19.55000000,0.23000000
514,0,-0.33500000,-0.14900000,0.92900000,0.90000000,-0.04000000,0.19000000,0.00341371,-0.21008107,0.18980796,-9.19000000,19.54000000,0.24000000
515,0,-0.33900000,-0.15400000,0.93700000,0.81000000,-0.04000000,0.38000000,0.00431179,-0.21012542,0.19022928,-9.18000000,19.54000000,0.24000000
516,0,-0.33200000,-0.15200000,0.93400000,0.23000000,0.60000000,0.01000000,0.00460492,-0.20936075,0.19024203,-9.18000000,19.54000000,0.24000000
517,0,-0.33600000,-0.15200000,0.92700000,0.31000000,0.15000000,-0.13000000,0.00492838,-0.20920424,0.19010638,-9.18000000,19.54000000,0.24000000
518,0,-0.32900000,-0.15400000,0.93200000,0.55000000,-0.09000000,-0.14000000,0.03522082,-0.21416119,0.18239558,-9.17000000,19.54000000,0.23000000
519,0,-0.33400000,-0.15100000,0.92600000,-0.29000000,-0.10000000,-0.28000000,0.03489984,-0.21427187,0.18208566,-9.17000000,19.54000000,0.23000000
520,0,-0.32900000,-0.14900000,0.93000000,0.28000000,0.24000000,-0.39000000,0.03518352,-0.21402872,0.18169054,-9.18000000,19.54000000,0.23000000
521,0,-0.34500000,-0.17000000,0.92800000,-0.13000000,-0.82000000,1.84000000,0.03505460,-0.21484190,0.18351524,-9.17000000,19.54000000,0.23000000
522,0,-0.33000000,-0.15200000,0.92400000,2.85000000,0.36000000,0.22000000,0.03794410,-0.21447691,0.18373829,-9.15000000,19.55000000,0.24000000
523,0,-0.33900000,-0.15100000,0.93700000,-0.49000000,-0.48000000,-0.69000000,0.03744789,-0.21496299,0.18303955,-9.15000000,19.55000000,0.23000000
524,0,-0.33100000,-0.15100000,0.93200000,-0.82000000,-0.73000000,-0.39000000,-0.00830914,-0.25569791,0.16127706,-9.16000000,19.54000000,0.22000000
525,0,-0.33600000,-0.14900000,0.92700000,1.32000000,0.88000000,0.82000000,-0.00683867,-0.25471759,0.16219053,-9.16000000,19.54000000,0.23000000
526,0,-0.33700000,-0.14400000,0.92900000,1.52000000,0.12000000,0.26000000,-0.00531065,-0.25459696,0.16245191,-9.14000000,19.55000000,0.24000000
527,0,-0.33100000,-0.15400000,0.93000000,-0.30000000,-0.49000000,0.01000000,-0.00560965,-0.25508534,0.16246187,-9.13000000,19.55000000,0.24000000
528,0,-0.33800000,-0.15600000,0.93300000,-1.18000000,-0.67000000,-0.26000000,-0.00681107,-0.25576750,0.16219715,-9.15000000,19.55000000,0.24000000
529,0,-0.32900000,-0.15200000,0.92600000,1.40000000,0.43000000,0.39000000,-0.00541370,-0.25533831,0.16258642,-9.15000000,19.55000000,0.24000000
530,0,-0.33500000,-0.14500000,0.93500000,1.09000000,0.18000000,-0.09000000,0.05567578,-0.24525013,0.15754234,-9.13000000,19.55000000,0.24000000
531,0,-0.33600000,-0.14700000,0.93400000,-1.25000000,-0.55000000,-0.34000000,0.05438223,-0.24581930,0.15719049,-9.14000000,19.55000000,0.24000000
532,0,-0.33700000,-0.16000000,0.92800000,-0.57000000,-0.10000000,-0.31000000,0.05381684,-0.24591849,0.15688299,-9.15000000,19.55000000,0.23000000
533,0,-0.33200000,-0.14800000,0.92700000,0.92000000,0.25000000,0.18000000,0.05476867,-0.24565984,0.15706922,-9.15000000,19.55000000,0.23000000
534,0,-0.33700000,-0.15100000,0.93400000,-0.03000000,0.18000000,-0.22000000,0.05473848,-0.24547872,0.15684785,-9.14000000,19.55000000,0.23000000
535,0,-0.32600000,-0.15900000,0.93200000,-1.21000000,-0.64000000,-0.32000000,0.05346296,-0.24615337,0.15651052,-9.15000000,19.54000000,0.23000000
536,0,-0.33600000,-0.15500000,0.92600000,0.52000000,0.26000000,-0.14000000,0.08228819,-0.23174076,0.14874988,-9.15000000,19.54000000,0.23000000
537,0,-0.33000000,-0.15100000,0.92600000,0.61000000,0.16000000,-0.02000000,0.08292148,-0.23157465,0.14872912,-9.15000000,19.54000000,0.23000000
538,0,-0.33200000,-0.15900000,0.92900000,-0.60000000,0.01000000,0.07000000,0.08232847,-0.23156477,0.14879830,-9.15000000,19.54000000,0.23000000
539,0,-0.33700000,-0.15100000,0.92900000,0.24000000,-0.08000000,-0.22000000,0.08257157,-0.23164580,0.14857547,-9.16000000,19.54000000,0.22000000
540,0,-0.33600000,-0.15600000,0.93000000,0.53000000,-0.07000000,0.18000000,0.08310487,-0.23171623,0.14875659,-9.15000000,19.54000000,0.23000000
541,0,-0.33700000,-0.15200000,0.93000000,0.01000000,-0.44000000,-0.19000000,0.08311491,-0.23215824,0.14856572,-9.15000000,19.54000000,0.23000000
542,0,-0.33500000,-0.15700000,0.92900000,-0.43000000,0.03000000,-0.07000000,0.05914149,-0.23048568,0.14466307,-9.15000000,19.54000000,0.22000000
543,0,-0.33300000,-0.15900000,0.92800000,0.32000000,-0.14000000,0.34000000,0.05949317,-0.23063953,0.14503672,-9.15000000,19.54000000,0.22000000
544,0,-0.32400000,-0.15200000,0.93100000,1.46000000,0.42000000,-0.21000000,0.06122437,-0.23014151,0.14478771,-9.15000000,19.54000000,0.22000000
545,0,-0.33500000,-0.15500000,0.92900000,-0.49000000,-0.21000000,-0.08000000,0.06066204,-0.23038251,0.14469590,-9.15000000,19.54000000,0.22000000
546,0,-0.32700000,-0.15300000,0.93000000,-0.02000000,0.29000000,-0.13000000,0.06064183,-0.23008939,0.14456450,-9.15000000,19.54000000,0.22000000
547,0,-0.34300000,-0.15000000,0.93100000,0.61000000,0.05000000,0.26000000,0.06125839,-0.23003886,0.14482730,-9.15000000,19.54000000,0.22000000
548,0,-0.33500000,-0.14900000,0.93200000,-0.21000000,0.04000000,0.47000000,0.04951564,-0.22780214,0.17110869,-9.14000000,19.54000000,0.22000000
549,0,-0.33700000,-0.15100000,0.92900000,0.01000000,0.06000000,-0.50000000,0.04952602,-0.22773987,0.17058972,-9.14000000,19.54000000,0.22000000
550,0,-0.33100000,-0.15700000,0.92700000,-0.72000000,-0.46000000,-0.36000000,0.04880308,-0.22820174,0.17022825,-9.15000000,19.54000000,0.21000000
551,0,-0.33200000,-0.15500000,0.92900000,1.06000000,0.19000000,0.11000000,0.04985730,-0.22801278,0.17033765,-9.15000000,19.54000000,0.21000000
552,0,-0.33900000,-0.14900000,0.92900000,0.02000000,0.05000000,0.01000000,0.04987702,-0.22796349,0.17034751,-9.15000000,19.54000000,0.21000000
553,0,-0.33200000,-0.15600000,0.92700000,-0.17000000,-0.10000000,-0.21000000,0.04970823,-0.22806278,0.17013900,-9.15000000,19.54000000,0.21000000
554,0,-0.33000000,-0.15600000,0.93000000,-0.04000000,0.20000000,-0.20000000,0.04736846,-0.21636394,0.15844016,-9.16000000,19.54000000,0.21000000
555,0,-0.33500000,-0.15200000,0.93000000,-0.28000000,0.00000000,-0.22000000,0.04707824,-0.21636394,0.15821213,-9.16000000,19.53000000,0.21000000
556,0,-0.33300000,-0.15600000,0.92900000,0.40000000,-0.04000000,0.03000000,0.04747567,-0.21640369,0.15824194,-9.16000000,19.53000000,0.20000000
557,0,-0.33300000,-0.15000000,0.93600000,0.88000000,0.35000000,-0.17000000,0.04836745,-0.21604900,0.15806966,-9.16000000,19.53000000,0.21000000
558,0,-0.33600000,-0.15100000,0.93800000,-0.58000000,0.27000000,0.21000000,0.04770930,-0.21574262,0.15830796,-9.16000000,19.53000000,0.20000000
559,0,-0.33300000,-0.14300000,0.92200000,0.07000000,0.08000000,-0.22000000,0.04777892,-0.21566306,0.15808916,-9.16000000,19.53000000,0.20000000
560,0,-0.33500000,-0.15800000,0.92800000,0.24000000,-0.08000000,0.42000000,0.04801618,-0.21574215,0.15850437,-9.16000000,19.53000000,0.20000000
561,0,-0.33000000,-0.14600000,0.92900000,0.53000000,0.35000000,0.50000000,0.07749178,-0.19627713,0.18631153,-9.15000000,19.54000000,0.21000000
562,0,-0.33900000,-0.15200000,0.93400000,-0.00000000,-0.38000000,-0.21000000,0.07749178,-0.19667019,0.18609432,-9.15000000,19.54000000,0.21000000
563,0,-0.33200000,-0.15300000,0.93500000,-0.49000000,-0.04000000,-0.21000000,0.07700142,-0.19671022,0.18588416,-9.15000000,19.54000000,0.21000000
564,0,-0.33500000,-0.15400000,0.92900000,0.34000000,0.08000000,0.35000000,0.07733899,-0.19663079,0.18623167,-9.15000000,19.54000000,0.21000000
565,0,-0.32800000,-0.14900000,0.93000000,1.13000000,0.33000000,-0.17000000,0.07845205,-0.19630573,0.18606422,-9.14000000,19.54000000,0.21000000
566,0,-0.33800000,-0.15000000,0.93500000,-1.40000000,-0.17000000,-0.07000000,0.07706403,-0.19647428,0.18599481,-9.15000000,19.54000000,0.21000000
567,0,-0.33100000,-0.14900000,0.92700000,-0.27000000,0.14000000,-0.37000000,0.06185008,-0.18858557,0.16514607,-9.16000000,19.54000000,0.20000000
568,0,-0.33700000,-0.15400000,0.93600000,0.32000000,-0.13000000,0.24000000,0.06218909,-0.18872329,0.16540033,-9.16000000,19.54000000,0.20000000
569,0,-0.32700000,-0.14700000,0.93500000,0.07000000,0.10000000,-0.28000000,0.06225926,-0.18862305,0.16511965,-9.15000000,19.54000000,0.20000000
570,0,-0.33500000,-0.14500000,0.92800000,-0.37000000,-0.48000000,-0.30000000,0.06189207,-0.18909940,0.16482193,-9.16000000,19.53000000,0.20000000
571,0,-0.33200000,-0.15000000,0.92900000,0.10000000,0.37000000,0.41000000,0.06199157,-0.18873124,0.16522989,-9.16000000,19.53000000,0.20000000
572,0,-0.34100000,-0.15300000,0.92700000,0.32000000,0.18000000,-0.10000000,0.06231196,-0.18855102,0.16512977,-9.16000000,19.54000000,0.20000000
573,0,-0.32900000,-0.15200000,0.93300000,-0.34000000,0.20000000,-0.18000000,0.04344897,-0.17745514,0.15514348,-9.16000000,19.53000000,0.19000000
574,0,-0.34000000,-0.16000000,0.92600000,-0.54000000,-0.35000000,0.58000000,0.04287780,-0.17782535,0.15575696,-9.16000000,19.53000000,0.20000000
575,0,-0.33800000,-0.14900000,0.92700000,1.59000000,0.35000000,0.06000000,0.04447050,-0.17747475,0.15581706,-9.15000000,19.53000000,0.20000000
576,0,-0.33900000,-0.15600000,0.93700000,-0.25000000,-0.16000000,-0.15000000,0.04422329,-0.17763296,0.15566874,-9.14000000,19.54000000,0.20000000
577,0,-0.33100000,-0.15100000,0.92000000,-0.45000000,-0.36000000,0.52000000,0.04377693,-0.17799006,0.15618454,-9.15000000,19.53000000,0.20000000
578,0,-0.33700000,-0.15300000,0.92700000,1.35000000,0.30000000,0.21000000,0.04511667,-0.17769234,0.15639294,-9.15000000,19.53000000,0.20000000
579,0,-0.33200000,-0.15400000,0.93500000,-0.69000000,-0.14000000,-0.15000000,0.00670593,-0.18548582,0.14804278,-9.14000000,19.54000000,0.20000000
580,0,-0.34100000,-0.15600000,0.92500000,-0.77000000,-0.03000000,-0.21000000,0.00585917,-0.18551881,0.14781185,-9.15000000,19.54000000,0.20000000
581,0,-0.34000000,-0.15200000,0.92700000,0.83000000,-0.01000000,0.28000000,0.00674104,-0.18552944,0.14810935,-9.15000000,19.54000000,0.20000000
582,0,-0.33800000,-0.14900000,0.93400000,0.37000000,0.15000000,-0.27000000,0.00715507,-0.18536159,0.14780722,-9.14000000,19.54000000,0.20000000
583,0,-0.33800000,-0.15200000,0.93200000,-1.33000000,-0.36000000,-0.53000000,0.00565380,-0.18576795,0.14720896,-9.15000000,19.54000000,0.20000000
584,0,-0.33000000,-0.15500000,0.92800000,-0.31000000,-0.01000000,0.37000000,0.00531954,-0.18577873,0.14760791,-9.16000000,19.53000000,0.20000000
585,0,-0.33200000,-0.15200000,0.92800000,1.06000000,0.39000000,0.35000000,0.06461571,-0.16396221,0.16718683,-9.15000000,19.54000000,0.20000000
586,0,-0.33500000,-0.15600000,0.93600000,-0.77000000,-0.30000000,0.07000000,0.06381833,-0.16427288,0.16725932,-9.15000000,19.54000000,0.20000000
587,0,-0.33700000,-0.15400000,0.92600000,-0.15000000,0.10000000,0.12000000,0.06366915,-0.16417343,0.16737867,-9.15000000,19.53000000,0.20000000
588,0,-0.34000000,-0.15100000,0.93300000,0.75000000,0.29000000,0.21000000,0.06441381,-0.16388549,0.16758717,-9.14000000,19.54000000,0.20000000
589,0,-0.33700000,-0.15100000,0.92800000,-0.43000000,-0.39000000,0.19000000,0.06395980,-0.16429726,0.16778778,-9.14000000,19.54000000,0.20000000
590,0,-0.33500000,-0.15400000,0.93100000,0.08000000,0.20000000,-0.08000000,0.06404368,-0.16408758,0.16770390,-9.15000000,19.53000000,0.20000000
591,0,-0.33400000,-0.15200000,0.93000000,0.37000000,0.28000000,-0.01000000,0.08461366,-0.14852110,0.16714796,-9.15000000,19.53000000,0.20000000
592,0,-0.33700000,-0.14900000,0.92600000,-0.12000000,0.17000000,-0.10000000,0.08448513,-0.14833902,0.16704085,-9.14000000,19.54000000,0.20000000
593,0,-0.33400000,-0.15600000,0.93300000,-0.23000000,0.10000000,0.01000000,0.08425617,-0.14823947,0.16705080,-9.15000000,19.54000000,0.20000000
594,0,-0.33400000,-0.15300000,0.92800000,0.78000000,0.05000000,-0.10000000,0.08502801,-0.14818999,0.16695185,-9.15000000,19.54000000,0.20000000
595,0,-0.33300000,-0.15300000,0.93800000,-0.32000000,-0.23000000,-0.11000000,0.08470907,-0.14841923,0.16684221,-9.15000000,19.53000000,0.20000000
596,0,-0.33200000,-0.15400000,0.92600000,-0.29000000,-0.28000000,0.04000000,0.08441940,-0.14869891,0.16688217,-9.15000000,19.53000000,0.20000000
597,0,-0.33600000,-0.15100000,0.93200000,0.49000000,0.25000000,-0.20000000,0.11165267,-0.13480438,0.15576655,-9.15000000,19.53000000,0.20000000
598,0,-0.33700000,-0.15100000,0.92900000,-0.67000000,-0.23000000,0.01000000,0.11095709,-0.13504316,0.15577693,-9.15000000,19.53000000,0.20000000
599,0,-0.32700000,-0.15100000,0.92600000,0.30000000,0.52000000,0.16000000,0.11125374,-0.13452897,0.15593514,-9.15000000,19.53000000,0.20000000
600,0,-0.33400000,-0.15000000,0.92900000,0.18000000,0.29000000,0.02000000,0.11143228,-0.13424132,0.15595498,-9.15000000,19.54000000,0.20000000
601,0,-0.33200000,-0.15700000,0.93000000,-0.58000000,-0.12000000,0.04000000,0.11082281,-0.13436741,0.15599701,-9.15000000,19.53000000,0.20000000
602,0,-0.33600000,-0.15600000,0.93000000,0.57000000,0.66000000,-0.42000000,0.11144515,-0.13364681,0.15553845,-9.15000000,19.53000000,0.20000000
603,0,-0.33800000,-0.15200000,0.93400000,-0.79000000,-0.05000000,0.13000000,0.06701597,-0.13645879,0.16284958,-9.15000000,19.53000000,0.20000000
604,0,-0.32700000,-0.15400000,0.92500000,0.18000000,-0.06000000,0.02000000,0.06721340,-0.13652459,0.16287152,-9.15000000,19.53000000,0.20000000
605,0,-0.33400000,-0.15500000,0.93100000,0.00000000,-0.36000000,0.17000000,0.06721340,-0.13693121,0.16306353,-9.15000000,19.53000000,0.20000000
606,0,-0.32900000,-0.15300000,0.93000000,-0.44000000,-0.11000000,0.11000000,0.06674842,-0.13704746,0.16317977,-9.15000000,19.53000000,0.20000000
607,0,-0.33200000,-0.15200000,0.92600000,-0.18000000,-0.15000000,-0.03000000,0.06656545,-0.13719993,0.16314928,-9.15000000,19.53000000,0.20000000
608,0,-0.33300000,-0.15500000,0.93500000,-0.07000000,0.00000000,0.17000000,0.06649535,-0.13719993,0.16331953,-9.15000000,19.53000000,0.20000000
609,0,-0.33600000,-0.15300000,0.92600000,0.32000000,-0.05000000,-0.16000000,0.08415255,-0.13995887,0.15449093,-9.15000000,19.53000000,0.20000000
610,0,-0.33400000,-0.15500000,0.93200000,-0.11000000,0.06000000,-0.09000000,0.08401857,-0.13988579,0.15438131,-9.15000000,19.53000000,0.20000000
611,0,-0.33500000,-0.15200000,0.91900000,0.12000000,0.01000000,0.06000000,0.08417920,-0.13987240,0.15446163,-9.16000000,19.53000000,0.20000000
612,0,-0.33300000,-0.15500000,0.92800000,0.24000000,0.11000000,0.03000000,0.08456272,-0.13969663,0.15450957,-9.15000000,19.53000000,0.20000000
613,0,-0.33300000,-0.15100000,0.92700000,-0.50000000,-0.11000000,-0.11000000,0.08376397,-0.13987235,0.15433384,-9.15000000,19.53000000,0.20000000
614,0,-0.33800000,-0.15600000,0.93000000,0.31000000,0.13000000,-0.14000000,0.08411500,-0.13972515,0.15417531,-9.15000000,19.53000000,0.20000000
615,0,-0.33500000,-0.15900000,0.93300000,-0.28000000,0.05000000,0.05000000,0.06900561,-0.13702704,0.15687342,-9.15000000,19.53000000,0.20000000
616,0,-0.33800000,-0.14800000,0.92500000,-0.14000000,0.23000000,0.12000000,0.06886090,-0.13678930,0.15699746,-9.16000000,19.53000000,0.20000000
617,0,-0.33300000,-0.15300000,0.93100000,0.65000000,0.19000000,-0.06000000,0.06950581,-0.13660079,0.15693793,-9.16000000,19.53000000,0.20000000
618,0,-0.33400000,-0.15400000,0.93000000,-0.16000000,-0.34000000,0.08000000,0.06934534,-0.13694177,0.15701816,-9.16000000,19.53000000,0.20000000
619,0,-0.32500000,-0.15100000,0.93100000,0.07000000,0.06000000,-0.03000000,0.06941528,-0.13688183,0.15698819,-9.16000000,19.53000000,0.20000000
620,0,-0.33400000,-0.15000000,0.93300000,0.15000000,0.20000000,0.12000000,0.06956475,-0.13668254,0.15710776,-9.16000000,19.53000000,0.20000000
621,0,-0.33000000,-0.15000000,0.92700000,-0.05000000,0.15000000,-0.15000000,0.06673083,-0.12818078,0.14860600,-9.16000000,19.53000000,0.20000000
622,0,-0.33400000,-0.15200000,0.93100000,-0.00000000,-0.00000000,0.03000000,0.06673083,-0.12818078,0.14864312,-9.16000000,19.53000000,0.20000000
623,0,-0.33200000,-0.15200000,0.92800000,0.34000000,0.04000000,-0.11000000,0.06710894,-0.12813630,0.14852079,-9.16000000,19.53000000,0.20000000
624,0,-0.33500000,-0.15300000,0.92700000,-0.08000000,0.39000000,-0.01000000,0.06702333,-0.12771895,0.14851009,-9.16000000,19.53000000,0.20000000
625,0,-0.33400000,-0.15000000,0.93200000,-0.13000000,0.07000000,0.05000000,0.06689217,-0.12764833,0.14856053,-9.16000000,19.53000000,0.20000000
626,0,-0.33600000,-0.15100000,0.93300000,0.27000000,0.23000000,-0.03000000,0.06716328,-0.12741739,0.14853041,-9.16000000,19.53000000,0.19000000
627,0,-0.33300000,-0.15100000,0.92800000,0.03000000,-0.14000000,-0.16000000,0.06880449,-0.13507639,0.13977726,-9.16000000,19.53000000,0.19000000
628,0,-0.33600000,-0.15600000,0.93100000,0.22000000,-0.01000000,-0.19000000,0.06903599,-0.13508691,0.13957734,-9.17000000,19.53000000,0.19000000
629,0,-0.33200000,-0.15500000,0.93300000,0.24000000,-0.01000000,0.09000000,0.06927754,-0.13509698,0.13966792,-9.17000000,19.53000000,0.19000000
630,0,-0.33200000,-0.14600000,0.93000000,0.18000000,0.06000000,0.10000000,0.06946119,-0.13503576,0.13976995,-9.16000000,19.53000000,0.19000000
631,0,-0.33400000,-0.15300000,0.93300000,-0.34000000,-0.13000000,0.04000000,0.06898637,-0.13521731,0.13982581,-9.16000000,19.53000000,0.19000000
632,0,-0.32800000,-0.15200000,0.93100000,0.20000000,0.02000000,0.02000000,0.06920822,-0.13519512,0.13984799,-9.17000000,19.53000000,0.19000000
633,0,-0.33400000,-0.15200000,0.93500000,0.13000000,0.08000000,-0.01000000,0.07649589,-0.13071040,0.13928740,-9.16000000,19.53000000,0.19000000
634,0,-0.33500000,-0.15100000,0.92400000,-0.21000000,-0.06000000,-0.00000000,0.07627146,-0.13077452,0.13928740,-9.16000000,19.53000000,0.19000000
635,0,-0.33500000,-0.15600000,0.93500000,0.06000000,0.19000000,-0.07000000,0.07633385,-0.13057695,0.13921461,-9.16000000,19.53000000,0.19000000
636,0,-0.33200000,-0.15400000,0.92600000,-0.13000000,-0.11000000,-0.06000000,0.07620304,-0.13068764,0.13915424,-9.16000000,19.53000000,0.19000000
637,0,-0.33300000,-0.15400000,0.93300000,0.17000000,0.17000000,0.11000000,0.07637487,-0.13051581,0.13926542,-9.16000000,19.53000000,0.19000000
638,0,-0.33600000,-0.15600000,0.93100000,-0.30000000,-0.12000000,-0.14000000,0.07607443,-0.13063599,0.13912522,-9.17000000,19.53000000,0.19000000
639,0,-0.33500000,-0.14900000,0.92900000,0.04000000,-0.12000000,0.12000000,0.07829065,-0.13728464,0.14577388,-9.17000000,19.53000000,0.19000000
640,0,-0.33400000,-0.15300000,0.93000000,0.21000000,0.00000000,-0.12000000,0.07852094,-0.13728464,0.14564229,-9.17000000,19.53000000,0.19000000
641,0,-0.33100000,-0.15300000,0.93000000,0.09000000,0.11000000,0.22000000,0.07861296,-0.13717217,0.14586722,-9.16000000,19.53000000,0.19000000
642,0,-0.33200000,-0.14600000,0.93200000,0.20000000,-0.01000000,-0.16000000,0.07881306,-0.13718218,0.14570714,-9.16000000,19.53000000,0.19000000
643,0,-0.33800000,-0.14900000,0.92900000,0.23000000,-0.12000000,0.19000000,0.07904279,-0.13730204,0.14589692,-9.16000000,19.53000000,0.19000000
644,0,-0.33700000,-0.15400000,0.92900000,0.00000000,0.00000000,-0.16000000,0.07904279,-0.13730204,0.14573676,-9.17000000,19.53000000,0.19000000
645,0,-0.33400000,-0.14900000,0.92900000,0.12000000,-0.12000000,-0.12000000,0.08569374,-0.14395299,0.13908582,-9.17000000,19.53000000,0.19000000
646,0,-0.33300000,-0.15100000,0.93000000,0.09000000,-0.01000000,-0.06000000,0.08578943,-0.14396362,0.13902203,-9.17000000,19.53000000,0.19000000
647,0,-0.33800000,-0.15000000,0.92700000,0.14000000,0.11000000,-0.07000000,0.08593257,-0.14385115,0.13895045,-9.17000000,19.53000000,0.19000000
648,0,-0.33300000,-0.15100000,0.93300000,0.08000000,0.05000000,-0.09000000,0.08601299,-0.14380089,0.13885998,-9.17000000,19.53000000,0.19000000
649,0,-0.33700000,-0.15300000,0.93200000,0.05000000,0.16000000,-0.01000000,0.08606306,-0.14364065,0.13884996,-9.17000000,19.53000000,0.19000000
650,0,-0.33300000,-0.15200000,0.92700000,0.01000000,-0.07000000,0.02000000,0.08607312,-0.14371107,0.13887008,-9.17000000,19.53000000,0.19000000
651,0,-0.33500000,-0.14900000,0.93500000,0.15000000,-0.07000000,0.31000000,0.09453615,-0.14766049,0.15636034,-9.17000000,19.53000000,0.19000000
652,0,-0.33600000,-0.15000000,0.92900000,0.06000000,-0.01000000,0.36000000,0.09460002,-0.14767113,0.15674353,-9.17000000,19.53000000,0.19000000
653,0,-0.33200000,-0.15400000,0.93400000,0.05000000,-0.14000000,0.24000000,0.09465220,-0.14781724,0.15699401,-9.16000000,19.53000000,0.20000000
654,0,-0.33600000,-0.15200000,0.93200000,0.28000000,0.07000000,0.12000000,0.09493141,-0.14774744,0.15711367,-9.16000000,19.53000000,0.20000000
655,0,-0.33600000,-0.15200000,0.92800000,0.05000000,0.07000000,0.17000000,0.09498081,-0.14767827,0.15728165,-9.16000000,19.53000000,0.20000000
656,0,-0.33500000,-0.15200000,0.92500000,-0.08000000,0.07000000,0.06000000,0.09490071,-0.14760819,0.15734172,-9.16000000,19.53000000,0.20000000
657,0,-0.33800000,-0.15200000,0.92600000,-0.45000000,-0.07000000,-0.27000000,0.06991417,-0.15149498,0.14234980,-9.17000000,19.53000000,0.20000000
658,0,-0.33600000,-0.15300000,0.93300000,0.05000000,0.23000000,-0.03000000,0.06996742,-0.15125006,0.14231785,-9.17000000,19.53000000,0.20000000
659,0,-0.33400000,-0.15100000,0.93200000,0.08000000,-0.01000000,0.03000000,0.07005410,-0.15126089,0.14235035,-9.17000000,19.53000000,0.20000000
660,0,-0.33800000,-0.15400000,0.92400000,-0.17000000,0.08000000,-0.15000000,0.06986378,-0.15117134,0.14218243,-9.17000000,19.53000000,0.20000000
661,0,-0.33600000,-0.15700000,0.93100000,-0.02000000,-0.14000000,-0.17000000,0.06984274,-0.15131865,0.14200355,-9.17000000,19.53000000,0.19000000
662,0,-0.33100000,-0.15400000,0.93100000,0.02000000,-0.04000000,0.12000000,0.06986317,-0.15135952,0.14212616,-9.17000000,19.53000000,0.19000000
663,0,-0.34100000,-0.16000000,0.92900000,-0.56000000,-0.06000000,0.01000000,0.03895453,-0.15467116,0.14267810,-9.17000000,19.53000000,0.19000000
664,0,-0.33100000,-0.16100000,0.92900000,-0.44000000,0.04000000,0.33000000,0.03847885,-0.15462792,0.14303486,-9.18000000,19.52000000,0.19000000
665,0,-0.33300000,-0.15700000,0.92900000,0.47000000,-0.09000000,0.14000000,0.03894898,-0.15471794,0.14317490,-9.17000000,19.52000000,0.19000000
666,0,-0.33000000,-0.14900000,0.93100000,-0.07000000,-0.06000000,0.17000000,0.03887994,-0.15477711,0.14334255,-9.17000000,19.52000000,0.20000000
667,0,-0.33800000,-0.15700000,0.93000000,-0.31000000,0.23000000,-0.47000000,0.03857533,-0.15455111,0.14288072,-9.17000000,19.53000000,0.19000000
668,0,-0.33700000,-0.15200000,0.93000000,-0.01000000,-0.22000000,0.20000000,0.03856512,-0.15477578,0.14308497,-9.17000000,19.53000000,0.19000000
669,0,-0.33500000,-0.14700000,0.93300000,0.25000000,0.29000000,-0.26000000,0.05275009,-0.13832121,0.12833259,-9.17000000,19.53000000,0.19000000
670,0,-0.33200000,-0.15300000,0.92900000,-0.69000000,-0.10000000,-0.10000000,0.05197025,-0.13843423,0.12821957,-9.17000000,19.53000000,0.19000000
671,0,-0.33000000,-0.15400000,0.92600000,0.16000000,0.05000000,-0.00000000,0.05213262,-0.13838349,0.12821957,-9.18000000,19.53000000,0.19000000
672,0,-0.33900000,-0.15800000,0.93200000,0.35000000,0.18000000,0.04000000,0.05249265,-0.13819833,0.12826071,-9.17000000,19.53000000,0.19000000
673,0,-0.34000000,-0.15200000,0.93200000,-0.14000000,0.00000000,-0.18000000,0.05234840,-0.13819833,0.12807526,-9.17000000,19.53000000,0.19000000
674,0,-0.33800000,-0.15100000,0.93500000,0.01000000,0.29000000,-0.05000000,0.05235924,-0.13788392,0.12802105,-9.17000000,19.53000000,0.19000000
675,0,-0.33900000,-0.14700000,0.93000000,0.38000000,0.43000000,-0.37000000,0.07324282,-0.11425250,0.10768704,-9.17000000,19.53000000,0.19000000
676,0,-0.33800000,-0.14700000,0.92800000,-0.32000000,-0.34000000,0.09000000,0.07290534,-0.11461108,0.10778196,-9.18000000,19.53000000,0.19000000
677,0,-0.33600000,-0.15600000,0.92900000,0.57000000,0.09000000,-0.14000000,0.07347155,-0.11452168,0.10764289,-9.18000000,19.53000000,0.19000000
678,0,-0.33400000,-0.15300000,0.92800000,0.15000000,-0.17000000,-0.05000000,0.07364283,-0.11471580,0.10758579,-9.18000000,19.53000000,0.19000000
679,0,-0.33600000,-0.15000000,0.93000000,-0.28000000,-0.22000000,-0.17000000,0.07334660,-0.11494855,0.10740594,-9.18000000,19.53000000,0.19000000
680,0,-0.32800000,-0.15600000,0.92500000,0.24000000,-0.24000000,0.02000000,0.07361722,-0.11521917,0.10742849,-9.18000000,19.53000000,0.19000000
681,0,-0.33300000,-0.15200000,0.93200000,0.66000000,0.41000000,0.06000000,0.07430116,-0.11479430,0.10749067,-9.17000000,19.53000000,0.19000000
682,0,-0.33300000,-0.15700000,0.93100000,-0.13000000,0.01000000,-0.04000000,0.06674059,-0.11421272,0.10516434,-9.17000000,19.54000000,0.19000000
683,0,-0.33200000,-0.15600000,0.93000000,-0.09000000,-0.04000000,0.28000000,0.06664722,-0.11425421,0.10545483,-9.18000000,19.53000000,0.19000000
684,0,-0.33500000,-0.15400000,0.93300000,0.66000000,0.26000000,0.03000000,0.06729858,-0.11399762,0.10548443,-9.17000000,19.54000000,0.19000000
685,0,-0.33300000,-0.15100000,0.93400000,0.14000000,-0.30000000,0.10000000,0.06743682,-0.11429383,0.10558317,-9.17000000,19.54000000,0.19000000
686,0,-0.33100000,-0.15700000,0.92700000,0.04000000,-0.12000000,0.37000000,0.06747678,-0.11441372,0.10595283,-9.17000000,19.53000000,0.19000000
687,0,-0.33600000,-0.15800000,0.93000000,0.13000000,-0.17000000,0.15000000,0.06760666,-0.11458357,0.10610269,-9.17000000,19.53000000,0.19000000
688,0,-0.33000000,-0.15400000,0.92800000,0.15000000,-0.16000000,0.54000000,0.07598007,-0.12351520,0.13624696,-9.17000000,19.53000000,0.19000000
689,0,-0.33100000,-0.14600000,0.93100000,0.55000000,-0.05000000,0.26000000,0.07655683,-0.12356763,0.13651961,-9.16000000,19.53000000,0.20000000
690,0,-0.33900000,-0.14700000,0.93300000,-0.47000000,-0.18000000,-0.02000000,0.07608626,-0.12374785,0.13649959,-9.16000000,19.53000000,0.20000000
691,0,-0.33300000,-0.15100000,0.92900000,-0.25000000,-0.12000000,0.03000000,0.07583810,-0.12386697,0.13652937,-9.16000000,19.53000000,0.20000000
692,0,-0.33100000,-0.15300000,0.92600000,0.06000000,-0.26000000,0.17000000,0.07589949,-0.12413299,0.13670330,-9.16000000,19.53000000,0.21000000
693,0,-0.32900000,-0.15200000,0.92600000,0.13000000,-0.15000000,0.29000000,0.07603033,-0.12428396,0.13699518,-9.16000000,19.53000000,0.21000000
694,0,-0.33600000,-0.15500000,0.93100000,-0.12000000,0.10000000,0.23000000,0.06928491,-0.11866278,0.14992390,-9.16000000,19.53000000,0.21000000
695,0,-0.33400000,-0.15400000,0.92900000,-0.19000000,-0.05000000,0.30000000,0.06908761,-0.11871470,0.15023542,-9.16000000,19.53000000,0.22000000
696,0,-0.33200000,-0.15000000,0.93000000,0.22000000,0.24000000,0.20000000,0.06931601,-0.11846554,0.15044306,-9.15000000,19.53000000,0.22000000
697,0,-0.33400000,-0.15000000,0.93200000,-0.09000000,-0.04000000,0.36000000,0.06917872,-0.11852656,0.15099224,-9.15000000,19.53000000,0.23000000
698,0,-0.32800000,-0.14800000,0.93300000,0.29000000,0.12000000,-0.14000000,0.06950171,-0.11839291,0.15083631,-9.15000000,19.53000000,0.23000000
699,0,-0.33800000,-0.16000000,0.93300000,-2.20000000,0.65000000,0.54000000,0.06719202,-0.11771050,0.15140324,-9.15000000,19.53000000,0.23000000
700,0,-0.32600000,-0.15300000,0.92400000,-1.93000000,-0.47000000,1.36000000,-0.03891368,-0.14354971,0.22617201,-9.17000000,19.54000000,0.24000000
701,0,-0.34700000,-0.14600000,0.93600000,-2.22000000,0.30000000,0.38000000,-0.04152118,-0.14319734,0.22661834,-9.19000000,19.53000000,0.25000000
702,0,-0.33400000,-0.16300000,0.93500000,-2.25000000,-0.67000000,-0.51000000,-0.04392950,-0.14391449,0.22607246,-9.21000000,19.52000000,0.25000000
703,0,-0.32900000,-0.16000000,0.92600000,-2.13000000,-0.89000000,0.16000000,-0.04666643,-0.14505808,0.22627805,-9.23000000,19.51000000,0.25000000
704,0,-0.33300000,-0.15700000,0.93100000,-0.03000000,-0.17000000,-0.14000000,-0.04671017,-0.14530595,0.22607392,-9.25000000,19.51000000,0.25000000
705,0,-0.33200000,-0.15700000,0.92700000,0.93000000,0.32000000,0.05000000,-0.04562892,-0.14493391,0.22613206,-9.24000000,19.51000000,0.25000000
706,0,-0.33700000,-0.15500000,0.93000000,0.03000000,0.06000000,-0.30000000,-0.04395028,-0.14157663,0.20934569,-9.24000000,19.52000000,0.25000000
707,0,-0.33300000,-0.15200000,0.92800000,-0.16000000,-0.36000000,0.05000000,-0.04414603,-0.14201707,0.20940686,-9.25000000,19.51000000,0.24000000
708,0,-0.33500000,-0.15400000,0.93000000,0.54000000,0.38000000,0.22000000,-0.04357524,-0.14161540,0.20963940,-9.25000000,19.51000000,0.24000000
709,0,-0.33300000,-0.15200000,0.93300000,0.13000000,-0.07000000,0.14000000,-0.04344211,-0.14168709,0.20978278,-9.25000000,19.52000000,0.24000000
710,0,-0.33100000,-0.15100000,0.92800000,-0.27000000,-0.02000000,0.22000000,-0.04371276,-0.14170714,0.21000331,-9.25000000,19.52000000,0.25000000
711,0,-0.33300000,-0.15300000,0.93500000,0.03000000,0.13000000,-0.33000000,-0.04368232,-0.14157525,0.20966850,-9.25000000,19.52000000,0.25000000
712,0,-0.33900000,-0.15100000,0.92800000,0.05000000,-0.03000000,0.03000000,-0.04095115,-0.14321395,0.21130720,-9.25000000,19.52000000,0.24000000
713,0,-0.33600000,-0.15900000,0.92900000,0.09000000,0.11000000,-0.26000000,-0.04084671,-0.14308630,0.21100548,-9.25000000,19.52000000,0.24000000
714,0,-0.33700000,-0.15600000,0.93200000,0.07000000,0.02000000,-0.29000000,-0.04077218,-0.14306500,0.21069673,-9.25000000,19.52000000,0.24000000
715,0,-0.33700000,-0.15200000,0.93000000,-0.01000000,-0.27000000,0.01000000,-0.04078245,-0.14334235,0.21070700,-9.25000000,19.52000000,0.24000000
716,0,-0.33200000,-0.15400000,0.92800000,-0.14000000,0.12000000,0.06000000,-0.04092139,-0.14322326,0.21076655,-9.25000000,19.52000000,0.24000000
717,0,-0.33000000,-0.15100000,0.92800000,-0.19000000,-0.19000000,0.13000000,-0.04111407,-0.14341594,0.21089838,-9.25000000,19.52000000,0.24000000
718,0,-0.33200000,-0.15500000,0.93100000,-0.06000000,-0.09000000,0.07000000,-0.04444222,-0.14840816,0.21478122,-9.26000000,19.52000000,0.24000000
719,0,-0.33500000,-0.15500000,0.93500000,0.11000000,0.19000000,-0.05000000,-0.04431708,-0.14819202,0.21472434,-9.26000000,19.52000000,0.24000000
720,0,-0.33300000,-0.15500000,0.92800000,0.08000000,-0.01000000,0.23000000,-0.04422855,-0.14820308,0.21497886,-9.25000000,19.52000000,0.24000000
721,0,-0.33000000,-0.15400000,0.93000000,0.06000000,0.15000000,0.06000000,-0.04416360,-0.14804071,0.21504381,-9.25000000,19.52000000,0.24000000
722,0,-0.33100000,-0.15400000,0.93100000,-0.69000000,-0.04000000,-0.32000000,-0.04486086,-0.14808113,0.21472044,-9.26000000,19.52000000,0.24000000
723,0,-0.33300000,-0.15300000,0.93300000,0.08000000,-0.03000000,0.10000000,-0.04477863,-0.14811197,0.21482324,-9.26000000,19.52000000,0.24000000
724,0,-0.33100000,-0.15400000,0.92900000,-0.13000000,-0.19000000,-0.09000000,-0.05198459,-0.15864376,0.20983449,-9.26000000,19.52000000,0.24000000
725,0,-0.33500000,-0.15900000,0.92900000,-0.32000000,-0.12000000,0.20000000,-0.05235213,-0.15878159,0.21006420,-9.26000000,19.52000000,0.24000000
726,0,-0.33300000,-0.15300000,0.93300000,0.10000000,0.31000000,0.01000000,-0.05222405,-0.15838452,0.21007701,-9.27000000,19.52000000,0.24000000
727,0,-0.33300000,-0.15400000,0.92900000,0.17000000,-0.03000000,-0.06000000,-0.05200184,-0.15842373,0.20999858,-9.27000000,19.52000000,0.24000000
728,0,-0.33000000,-0.15300000,0.93000000,-0.05000000,-0.10000000,-0.18000000,-0.05205826,-0.15853658,0.20979545,-9.27000000,19.51000000,0.24000000
729,0,-0.33800000,-0.15600000,0.92800000,-0.76000000,-0.00000000,-0.04000000,-0.05289856,-0.15853658,0.20975122,-9.27000000,19.52000000,0.24000000
730,0,-0.33600000,-0.15600000,0.92800000,-0.06000000,-0.28000000,-0.09000000,-0.05621253,-0.17400179,0.20478026,-9.28000000,19.51000000,0.23000000
731,0,-0.32800000,-0.15300000,0.92900000,0.40000000,0.17000000,0.11000000,-0.05575511,-0.17380738,0.20490606,-9.27000000,19.51000000,0.23000000
732,0,-0.33700000,-0.15200000,0.93500000,-0.17000000,0.20000000,0.07000000,-0.05592673,-0.17360547,0.20497673,-9.27000000,19.52000000,0.23000000
733,0,-0.32800000,-0.14800000,0.93300000,-0.14000000,-0.06000000,-0.26000000,-0.05607294,-0.17366813,0.20470519,-9.28000000,19.52000000,0.23000000
734,0,-0.33600000,-0.15200000,0.92400000,0.04000000,-0.13000000,-0.11000000,-0.05603270,-0.17379894,0.20459450,-9.28000000,19.51000000,0.23000000
735,0,-0.33300000,-0.15700000,0.93300000,-0.03000000,-0.41000000,0.01000000,-0.05606279,-0.17421022,0.20460453,-9.28000000,19.51000000,0.23000000
736,0,-0.33700000,-0.15600000,0.93100000,0.39000000,0.06000000,-0.02000000,-0.03447427,-0.17088891,0.20349743,-9.28000000,19.51000000,0.23000000
737,0,-0.33400000,-0.15400000,0.93300000,0.17000000,-0.04000000,-0.19000000,-0.03428206,-0.17093414,0.20328260,-9.28000000,19.51000000,0.23000000
738,0,-0.33200000,-0.15700000,0.93400000,-0.07000000,-0.09000000,-0.24000000,-0.03435267,-0.17102494,0.20304048,-9.28000000,19.51000000,0.23000000
739,0,-0.33300000,-0.15200000,0.92800000,-0.08000000,0.01000000,0.07000000,-0.03443342,-0.17101484,0.20311113,-9.28000000,19.51000000,0.23000000
740,0,-0.33100000,-0.16000000,0.93200000,0.22000000,-0.11000000,-0.25000000,-0.03420303,-0.17113004,0.20284932,-9.28000000,19.51000000,0.23000000
741,0,-0.33000000,-0.15100000,0.93000000,0.56000000,0.06000000,0.09000000,-0.03363246,-0.17106891,0.20294102,-9.28000000,19.51000000,0.23000000
742,0,-0.33300000,-0.15500000,0.93200000,-0.07000000,0.02000000,-0.13000000,-0.03756584,-0.16994509,0.19563618,-9.28000000,19.51000000,0.23000000
743,0,-0.33000000,-0.15400000,0.93100000,0.24000000,-0.10000000,0.18000000,-0.03731496,-0.17004962,0.19582434,-9.28000000,19.51000000,0.23000000
744,0,-0.33200000,-0.15400000,0.93000000,-0.10000000,0.12000000,0.12000000,-0.03741477,-0.16992984,0.19594411,-9.28000000,19.51000000,0.23000000
745,0,-0.33600000,-0.15400000,0.92700000,-0.16000000,-0.23000000,0.15000000,-0.03759080,-0.17018288,0.19610914,-9.28000000,19.51000000,0.23000000
746,0,-0.33000000,-0.15300000,0.93000000,0.34000000,0.09000000,-0.10000000,-0.03718310,-0.17007496,0.19598923,-9.28000000,19.51000000,0.23000000
747,0,-0.33300000,-0.15600000,0.92900000,-0.27000000,0.13000000,0.12000000,-0.03747319,-0.16993529,0.19611816,-9.29000000,19.51000000,0.23000000
748,0,-0.32800000,-0.15400000,0.93000000,-0.12000000,0.02000000,-0.12000000,-0.04408918,-0.16883262,0.18950217,-9.29000000,19.51000000,0.23000000
749,0,-0.33600000,-0.15500000,0.93600000,0.43000000,0.01000000,-0.07000000,-0.04363323,-0.16882202,0.18942795,-9.29000000,19.51000000,0.23000000
750,0,-0.33100000,-0.15100000,0.93000000,-0.19000000,-0.12000000,-0.08000000,-0.04382514,-0.16894323,0.18934714,-9.29000000,19.51000000,0.22000000
751,0,-0.33500000,-0.15100000,0.92800000,-0.11000000,0.16000000,-0.08000000,-0.04393553,-0.16878265,0.18926685,-9.29000000,19.51000000,0.22000000
752,0,-0.33400000,-0.15200000,0.93100000,0.19000000,-0.05000000,-0.19000000,-0.04374498,-0.16883279,0.18907631,-9.29000000,19.51000000,0.22000000
753,0,-0.33100000,-0.15500000,0.92800000,-0.49000000,0.20000000,-0.18000000,-0.04424131,-0.16863021,0.18889398,-9.29000000,19.51000000,0.22000000
754,0,-0.33400000,-0.15500000,0.92900000,-0.02000000,0.18000000,-0.31000000,-0.04536462,-0.15852037,0.17148259,-9.29000000,19.51000000,0.22000000
755,0,-0.33400000,-0.14400000,0.93100000,0.00000000,0.10000000,0.07000000,-0.04536462,-0.15840084,0.17156626,-9.29000000,19.51000000,0.22000000
756,0,-0.33000000,-0.15100000,0.92900000,-0.29000000,-0.10000000,-0.07000000,-0.04566452,-0.15850425,0.17149387,-9.29000000,19.51000000,0.22000000
757,0,-0.33400000,-0.15600000,0.92800000,0.12000000,0.15000000,0.03000000,-0.04554440,-0.15835410,0.17152390,-9.29000000,19.51000000,0.22000000
758,0,-0.33200000,-0.15200000,0.92900000,-0.41000000,-0.01000000,0.00000000,-0.04596096,-0.15836426,0.17152390,-9.29000000,19.51000000,0.22000000
759,0,-0.33800000,-0.15600000,0.92500000,-0.02000000,0.03000000,0.07000000,-0.04598103,-0.15833416,0.17159413,-9.29000000,19.51000000,0.22000000
760,0,-0.33300000,-0.15600000,0.92700000,0.33000000,0.06000000,-0.01000000,-0.02762743,-0.15499715,0.17103796,-9.29000000,19.51000000,0.22000000
761,0,-0.33000000,-0.15100000,0.93000000,-0.29000000,0.14000000,0.14000000,-0.02792788,-0.15485210,0.17118301,-9.29000000,19.51000000,0.22000000
762,0,-0.32900000,-0.15400000,0.92500000,0.01000000,0.18000000,0.02000000,-0.02791797,-0.15467373,0.17120283,-9.29000000,19.51000000,0.22000000
763,0,-0.32800000,-0.14900000,0.92800000,-0.02000000,0.04000000,-0.07000000,-0.02793770,-0.15463427,0.17113378,-9.29000000,19.51000000,0.22000000
764,0,-0.33500000,-0.15400000,0.93200000,-0.20000000,0.20000000,0.15000000,-0.02814000,-0.15443197,0.17128550,-9.29000000,19.51000000,0.22000000
765,0,-0.33300000,-0.15200000,0.93100000,-0.21000000,0.02000000,-0.10000000,-0.02835186,-0.15441180,0.17118461,-9.29000000,19.51000000,0.22000000
766,0,-0.33500000,-0.15500000,0.93100000,0.17000000,0.11000000,-0.05000000,-0.01886564,-0.14827366,0.16839455,-9.29000000,19.51000000,0.22000000
767,0,-0.33400000,-0.15300000,0.92800000,0.00000000,0.10000000,0.07000000,-0.01886564,-0.14815978,0.16847426,-9.29000000,19.51000000,0.22000000
768,0,-0.32600000,-0.16300000,0.93700000,-0.62000000,0.39000000,0.36000000,-0.01949468,-0.14776410,0.16883951,-9.29000000,19.51000000,0.22000000
769,0,-0.33800000,-0.15200000,0.92200000,-0.23000000,0.01000000,-0.18000000,-0.01972622,-0.14775403,0.16865830,-9.30000000,19.51000000,0.22000000
770,0,-0.33100000,-0.15700000,0.93200000,0.04000000,0.05000000,0.02000000,-0.01968630,-0.14770412,0.16867827,-9.30000000,19.51000000,0.21000000
771,0,-0.33700000,-0.14800000,0.92500000,0.33000000,0.11000000,-0.04000000,-0.01935558,-0.14759388,0.16863818,-9.30000000,19.51000000,0.21000000
772,0,-0.33500000,-0.15200000,0.93300000,0.39000000,-0.10000000,-0.60000000,0.00215539,-0.15310952,0.13554438,-9.30000000,19.51000000,0.21000000
773,0,-0.33400000,-0.15200000,0.93100000,0.29000000,0.12000000,-0.13000000,0.00246407,-0.15298179,0.13540601,-9.29000000,19.51000000,0.21000000
774,0,-0.33200000,-0.15400000,0.93300000,0.43000000,0.23000000,0.04000000,0.00289736,-0.15275003,0.13544631,-9.29000000,19.51000000,0.21000000
775,0,-0.33800000,-0.15400000,0.93200000,0.26000000,0.24000000,0.03000000,0.00315787,-0.15250956,0.13547637,-9.29000000,19.51000000,0.21000000
776,0,-0.33200000,-0.15200000,0.93000000,-0.32000000,-0.13000000,0.07000000,0.00283557,-0.15264050,0.13554687,-9.29000000,19.51000000,0.21000000
777,0,-0.33900000,-0.15300000,0.93100000,0.12000000,0.27000000,-0.00000000,0.00295592,-0.15236971,0.13554687,-9.29000000,19.51000000,0.21000000
778,0,-0.33900000,-0.14900000,0.92600000,0.05000000,-0.04000000,0.10000000,0.00577762,-0.15462708,0.14119028,-9.29000000,19.51000000,0.21000000
779,0,-0.33600000,-0.15400000,0.93400000,0.27000000,0.09000000,0.15000000,0.00606191,-0.15453231,0.14134822,-9.29000000,19.51000000,0.21000000
780,0,-0.33500000,-0.15300000,0.93200000,-0.50000000,-0.16000000,-0.41000000,0.00555916,-0.15469319,0.14093596,-9.29000000,19.51000000,0.21000000
781,0,-0.33100000,-0.15600000,0.92700000,-0.47000000,0.05000000,0.36000000,0.00508399,-0.15464264,0.14129992,-9.29000000,19.51000000,0.21000000
782,0,-0.32900000,-0.14900000,0.92500000,0.89000000,0.02000000,-0.37000000,0.00596935,-0.15462275,0.14093185,-9.29000000,19.51000000,0.21000000
783,0,-0.33100000,-0.15500000,0.93400000,-0.59000000,-0.20000000,-0.30000000,0.00538088,-0.15482223,0.14063263,-9.29000000,19.51000000,0.20000000
784,0,-0.32900000,-0.15000000,0.92300000,0.07000000,0.29000000,-0.25000000,0.00926612,-0.13872622,0.12675676,-9.29000000,19.51000000,0.20000000
785,0,-0.33300000,-0.15600000,0.93000000,0.35000000,0.00000000,-0.12000000,0.00963649,-0.13872622,0.12662977,-9.29000000,19.51000000,0.20000000
786,0,-0.33000000,-0.15000000,0.92700000,0.26000000,0.35000000,0.11000000,0.00989712,-0.13837538,0.12674004,-9.29000000,19.51000000,0.20000000
787,0,-0.33500000,-0.15400000,0.93300000,0.03000000,0.12000000,-0.17000000,0.00992738,-0.13825434,0.12656857,-9.29000000,19.51000000,0.20000000
788,0,-0.32900000,-0.15500000,0.92200000,-0.35000000,0.05000000,0.13000000,0.00957837,-0.13820448,0.12669821,-9.29000000,19.51000000,0.20000000
789,0,-0.33800000,-0.15500000,0.92700000,0.63000000,0.02000000,0.46000000,0.01020568,-0.13818457,0.12715625,-9.29000000,19.51000000,0.20000000
790,0,-0.33400000,-0.15400000,0.93200000,0.65000000,0.14000000,0.27000000,0.04635345,-0.13039890,0.14217147,-9.28000000,19.51000000,0.20000000
791,0,-0.33700000,-0.15400000,0.93200000,-0.33000000,-0.02000000,0.01000000,0.04600385,-0.13042008,0.14218207,-9.28000000,19.51000000,0.20000000
792,0,-0.33200000,-0.15600000,0.93100000,-0.15000000,-0.34000000,0.29000000,0.04585306,-0.13076188,0.14247360,-9.28000000,19.51000000,0.20000000
793,0,-0.33200000,-0.15200000,0.92900000,0.96000000,0.13000000,0.40000000,0.04683506,-0.13062890,0.14288276,-9.28000000,19.51000000,0.21000000
794,0,-0.33800000,-0.15100000,0.93200000,-0.06000000,0.00000000,-0.06000000,0.04677499,-0.13062890,0.14282269,-9.27000000,19.51000000,0.21000000
795,0,-0.33200000,-0.15300000,0.93100000,-0.35000000,-0.18000000,-0.05000000,0.04642298,-0.13080993,0.14277240,-9.28000000,19.51000000,0.21000000
796,0,-0.33700000,-0.15500000,0.93200000,0.24000000,0.40000000,0.32000000,0.05995758,-0.10825225,0.16081855,-9.28000000,19.51000000,0.20000000
797,0,-0.33200000,-0.15600000,0.93300000,-0.09000000,-0.01000000,0.01000000,0.05986271,-0.10826279,0.16082909,-9.28000000,19.51000000,0.20000000
798,0,-0.33100000,-0.15500000,0.93000000,-0.21000000,-0.06000000,0.25000000,0.05964790,-0.10832417,0.16108482,-9.28000000,19.51000000,0.20000000
799,0,-0.33600000,-0.15200000,0.93100000,0.16000000,0.02000000,-0.15000000,0.05980832,-0.10830412,0.16093442,-9.28000000,19.51000000,0.20000000
800,0,-0.33400000,-0.15600000,0.93000000,-0.20000000,0.06000000,-0.17000000,0.05960817,-0.10824407,0.16076429,-9.28000000,19.51000000,0.20000000
801,0,-0.33700000,-0.15300000,0.92600000,-0.39000000,-0.35000000,0.03000000,0.05919873,-0.10861152,0.16079579,-9.29000000,19.51000000,0.20000000
802,0,-0.33200000,-0.14300000,0.93300000,0.53000000,0.30000000,-0.28000000,0.09148967,-0.09033363,0.14373643,-9.28000000,19.51000000,0.20000000
803,0,-0.33600000,-0.15400000,0.93500000,-0.40000000,-0.03000000,0.31000000,0.09101842,-0.09036898,0.14410165,-9.28000000,19.51000000,0.20000000
804,0,-0.32900000,-0.15400000,0.92600000,0.22000000,0.18000000,-0.15000000,0.09126108,-0.09017043,0.14393619,-9.29000000,19.51000000,0.20000000
805,0,-0.33700000,-0.15500000,0.93000000,0.30000000,-0.16000000,0.25000000,0.09158577,-0.09034360,0.14420676,-9.28000000,19.51000000,0.20000000
806,0,-0.32200000,-0.15400000,0.92800000,-0.02000000,0.03000000,-0.08000000,0.09146639,-0.09016454,0.14372927,-9.28000000,19.51000000,0.20000000
807,0,-0.33800000,-0.15700000,0.92800000,-0.03000000,0.29000000,-0.09000000,0.09143129,-0.08982523,0.14362397,-9.28000000,19.51000000,0.20000000
808,0,-0.33500000,-0.15200000,0.93000000,0.06000000,-0.01000000,0.18000000,0.09150214,-0.08983704,0.14383650,-9.28000000,19.51000000,0.20000000
809,0,-0.33200000,-0.15700000,0.93100000,0.14000000,0.29000000,-0.16000000,0.09814433,-0.07607822,0.13624543,-9.28000000,19.51000000,0.20000000
810,0,-0.32900000,-0.15600000,0.93300000,-0.64000000,-0.27000000,0.38000000,0.09717640,-0.07648656,0.13682014,-9.28000000,19.51000000,0.20000000
811,0,-0.33300000,-0.15400000,0.92700000,0.05000000,0.21000000,-0.17000000,0.09744320,-0.07536597,0.13591299,-9.29000000,19.51000000,0.20000000
812,0,-0.33500000,-0.14900000,0.93000000,0.49000000,0.02000000,-0.07000000,0.10270225,-0.07515132,0.13516170,-9.28000000,19.51000000,0.20000000
813,0,-0.32900000,-0.14700000,0.93600000,-0.37000000,-0.07000000,-0.83000000,0.10054589,-0.07555928,0.13032445,-9.28000000,19.51000000,0.20000000
814,0,-0.34000000,-0.15900000,0.93000000,-0.89000000,-0.13000000,0.01000000,0.09774252,-0.07596876,0.13035595,-9.29000000,19.51000000,0.19000000
815,0,-0.33000000,-0.15400000,0.92500000,1.13000000,0.44000000,-0.61000000,0.13839410,-0.06013983,0.10841130,-9.29000000,19.51000000,0.19000000
816,0,-0.33600000,-0.15200000,0.93700000,-0.17000000,0.12000000,0.04000000,0.13805597,-0.05990115,0.10849086,-9.29000000,19.51000000,0.19000000
817,0,-0.33200000,-0.15400000,0.92600000,-0.11000000,-0.09000000,-0.01000000,0.13781922,-0.06009485,0.10846934,-9.29000000,19.51000000,0.19000000
818,0,-0.33400000,-0.14800000,0.93300000,0.82000000,0.08000000,-0.10000000,0.13965957,-0.05991531,0.10824490,-9.28000000,19.51000000,0.19000000
819,0,-0.33100000,-0.15300000,0.93200000,-0.22000000,-0.30000000,-0.38000000,0.13921858,-0.06051665,0.10748320,-9.28000000,19.51000000,0.19000000
820,0,-0.32900000,-0.15500000,0.93000000,-0.18000000,0.15000000,0.20000000,0.13890468,-0.06025507,0.10783198,-9.28000000,19.51000000,0.18000000
821,0,-0.33600000,-0.15000000,0.93300000,0.44000000,0.54000000,-0.10000000,0.16073854,-0.03345897,0.10286974,-9.28000000,19.51000000,0.18000000
822,0,-0.33300000,-0.15600000,0.92800000,0.14000000,-0.13000000,0.32000000,0.16091175,-0.03361982,0.10326566,-9.28000000,19.51000000,0.19000000
823,0,-0.32900000,-0.15100000,0.92500000,0.42000000,0.23000000,-0.18000000,0.16146074,-0.03331918,0.10303038,-9.28000000,19.51000000,0.19000000
824,0,-0.33300000,-0.15700000,0.93200000,-0.64000000,-0.23000000,0.49000000,0.16065822,-0.03360759,0.10364481,-9.28000000,19.51000000,0.19000000
825,0,-0.33200000,-0.14900000,0.93300000,1.16000000,0.40000000,0.11000000,0.16207325,-0.03311965,0.10377899,-9.28000000,19.51000000,0.19000000
826,0,-0.34000000,-0.15100000,0.93500000,-0.42000000,-0.03000000,0.08000000,0.16158804,-0.03315430,0.10387141,-9.27000000,19.51000000,0.19000000
