Measurement Count,IMU_MODE,Accel_X,Accel_Y,Accel_Z,Gyro_X,Gyro_Y,Gyro_Z,X_DEL_ANG,Y_DEL_ANG,Z_DEL_ANG,ROLL,PITCH,HEADING
1,0,0.01800000,0.33400000,0.94400000,0.06000000,-0.03000000,0.02000000,0.01819013,-0.00909507,0.00606338,0.00000000,-0.00000000,0.00000000
2,0,0.02400000,0.33200000,0.94400000,0.16000000,-0.08000000,-0.23000000,0.01835597,-0.00917799,0.00582498,19.41000000,-1.35000000,-0.00000000
3,0,0.02300000,0.32800000,0.94500000,0.19000000,0.16000000,-0.01000000,0.01854535,-0.00901852,0.00581501,19.34000000,-1.35000000,0.00000000
4,0,0.01900000,0.33300000,0.94000000,0.15000000,-0.08000000,0.19000000,0.01869317,-0.00909736,0.00600226,19.35000000,-1.35000000,0.00000000
5,0,0.02200000,0.33300000,0.94200000,-0.16000000,-0.13000000,0.03000000,0.01853576,-0.00922525,0.00603177,19.34000000,-1.34000000,0.00000000
6,0,0.02000000,0.33300000,0.94300000,0.23000000,-0.07000000,0.04000000,0.01876450,-0.00929487,0.00607155,19.34000000,-1.29000000,0.00000000
7,0,0.01900000,0.33700000,0.94500000,-0.06000000,-0.01000000,0.09000000,0.01870507,-0.00930477,0.00616070,19.32000000,-1.28000000,0.00000000
8,0,0.02400000,0.33500000,0.94100000,-0.16000000,-0.24000000,0.03000000,0.01854202,-0.00954936,0.00619127,19.34000000,-1.30000000,0.00000000
9,0,0.01900000,0.33100000,0.94700000,0.28000000,0.07000000,0.06000000,0.01883257,-0.00947672,0.00625353,19.36000000,-1.32000000,-0.00000000
10,0,0.02100000,0.32800000,0.94300000,-0.17000000,-0.12000000,-0.05000000,0.01866176,-0.00959730,0.00620329,19.35000000,-1.33000000,-0.00000000
11,0,0.02000000,0.33100000,0.94400000,-0.02000000,0.16000000,-0.01000000,0.01864131,-0.00943374,0.00619307,19.35000000,-1.32000000,-0.00000000
12,0,0.02000000,0.33200000,0.94700000,0.04000000,0.29000000,-0.06000000,0.01868079,-0.00914754,0.00613386,19.36000000,-1.32000000,0.00000000
13,0,0.02200000,0.33100000,0.94300000,0.01000000,-0.05000000,-0.08000000,0.01869091,-0.00919815,0.00605288,19.36000000,-1.31000000,0.00000000
14,0,0.02500000,0.32700000,0.94500000,0.15000000,0.01000000,0.08000000,0.01884321,-0.00918799,0.00613410,19.35000000,-1.32000000,0.00000000
15,0,0.02700000,0.33400000,0.94400000,-0.15000000,0.15000000,0.05000000,0.01868451,-0.00902930,0.00618700,19.36000000,-1.32000000,0.00000000
16,0,0.02200000,0.33200000,0.93900000,-0.06000000,0.02000000,0.19000000,0.01861932,-0.00900757,0.00639345,19.36000000,-1.32000000,0.00000000
17,0,0.02200000,0.33300000,0.94600000,-0.18000000,0.02000000,-0.08000000,0.01843086,-0.00898663,0.00630969,19.36000000,-1.32000000,0.00000000
18,0,0.01800000,0.32800000,0.94400000,0.10000000,-0.29000000,-0.23000000,0.01853327,-0.00928362,0.00607415,19.35000000,-1.31000000,0.00000000
19,0,0.02600000,0.33300000,0.94300000,-0.07000000,-0.19000000,0.05000000,0.01845766,-0.00948885,0.00612815,19.35000000,-1.31000000,0.00000000
20,0,0.02900000,0.32900000,0.94400000,0.07000000,-0.04000000,0.05000000,0.01853978,-0.00953577,0.00618681,19.34000000,-1.32000000,0.00000000
21,0,0.01900000,0.33500000,0.94700000,0.01000000,-0.15000000,-0.02000000,0.01855098,-0.00970380,0.00616440,19.35000000,-1.33000000,0.00000000
22,0,0.02100000,0.33200000,0.94200000,-0.01000000,0.16000000,-0.11000000,0.01854079,-0.00954078,0.00605233,19.35000000,-1.31000000,-0.00000000
23,0,0.02000000,0.33200000,0.94400000,0.11000000,0.20000000,0.12000000,0.01865916,-0.00932556,0.00618146,19.35000000,-1.31000000,0.00000000
24,0,0.02400000,0.33400000,0.94700000,0.08000000,-0.25000000,0.05000000,0.01875040,-0.00961068,0.00623848,19.35000000,-1.30000000,0.00000000
25,0,0.02200000,0.33200000,0.94200000,-0.18000000,-0.21000000,-0.07000000,0.01855378,-0.00984006,0.00616202,19.36000000,-1.30000000,0.00000000
26,0,0.02300000,0.32500000,0.94200000,0.05000000,-0.26000000,-0.02000000,0.01860954,-0.01013001,0.00613972,19.36000000,-1.29000000,0.00000000
27,0,0.02300000,0.33000000,0.94500000,-0.01000000,0.07000000,-0.04000000,0.01859871,-0.01005420,0.00609640,19.36000000,-1.30000000,-0.00000000
28,0,0.02300000,0.33300000,0.94300000,-0.12000000,-0.38000000,-0.27000000,0.01847290,-0.01045260,0.00581332,19.36000000,-1.29000000,-0.00000000
29,0,0.01800000,0.33500000,0.94500000,-0.02000000,0.15000000,0.01000000,0.01811490,-0.00776759,0.00599232,19.37000000,-1.29000000,-0.00000000
30,0,0.02000000,0.33600000,0.93800000,-0.00000000,0.01000000,-0.02000000,0.01811490,-0.00775527,0.00596769,19.37000000,-1.29000000,-0.00000000
31,0,0.02300000,0.33000000,0.93900000,0.05000000,-0.16000000,-0.03000000,0.01816988,-0.00793122,0.00593470,19.37000000,-1.28000000,-0.00000000
32,0,0.02400000,0.33300000,0.93800000,-0.34000000,-0.11000000,-0.06000000,0.01781520,-0.00804597,0.00587211,19.37000000,-1.27000000,-0.00000000
33,0,0.02100000,0.33000000,0.94700000,-0.20000000,-0.15000000,0.09000000,0.01759970,-0.00820760,0.00596908,19.37000000,-1.28000000,-0.00000000
34,0,0.02800000,0.33000000,0.94300000,0.01000000,0.28000000,-0.27000000,0.01761021,-0.00791311,0.00568511,19.38000000,-1.28000000,-0.00000000
35,0,0.02300000,0.33200000,0.94100000,0.13000000,0.06000000,-0.01000000,0.02474824,-0.00461863,0.00513603,19.38000000,-1.28000000,-0.00000000
36,0,0.02700000,0.33200000,0.94100000,0.12000000,-0.29000000,-0.04000000,0.02487883,-0.00493422,0.00509250,19.37000000,-1.28000000,-0.00000000
37,0,0.02500000,0.32500000,0.95100000,-0.06000000,-0.08000000,0.07000000,0.02481724,-0.00501634,0.00516435,19.38000000,-1.28000000,-0.00000000
38,0,0.02100000,0.33000000,0.94800000,-0.05000000,-0.02000000,-0.11000000,0.02476584,-0.00503690,0.00505128,19.37000000,-1.28000000,-0.00000000
39,0,0.02000000,0.33400000,0.94300000,0.07000000,-0.12000000,-0.08000000,0.02483620,-0.00515750,0.00497088,19.38000000,-1.27000000,-0.00000000
40,0,0.02200000,0.32900000,0.94400000,-0.13000000,-0.17000000,-0.00000000,0.02470548,-0.00532844,0.00497088,19.37000000,-1.27000000,-0.00000000
41,0,0.02400000,0.33300000,0.94000000,-0.01000000,0.04000000,0.03000000,0.02414139,-0.00307208,0.00666315,19.37000000,-1.27000000,-0.00000000
42,0,0.02500000,0.33300000,0.94200000,0.02000000,-0.09000000,-0.07000000,0.02416350,-0.00317159,0.00658575,19.38000000,-1.27000000,-0.00000000
43,0,0.02600000,0.33900000,0.94400000,-0.04000000,0.04000000,-0.11000000,0.02412121,-0.00312930,0.00646945,19.38000000,-1.27000000,-0.00000000
44,0,0.02500000,0.33200000,0.94400000,0.05000000,0.04000000,-0.06000000,0.02417414,-0.00308696,0.00640595,19.38000000,-1.27000000,-0.00000000
45,0,0.02300000,0.33100000,0.94100000,-0.01000000,0.21000000,0.22000000,0.02416357,-0.00286499,0.00663849,19.38000000,-1.27000000,-0.00000000
46,0,0.02300000,0.33400000,0.94300000,-0.03000000,-0.05000000,-0.16000000,0.02413172,-0.00291807,0.00646864,19.38000000,-1.28000000,-0.00000000
47,0,0.02000000,0.32800000,0.94300000,-0.08000000,0.10000000,0.06000000,0.01971467,0.00260324,0.00978143,19.38000000,-1.28000000,-0.00000000
48,0,0.02200000,0.33300000,0.94500000,0.24000000,0.26000000,0.05000000,0.01997482,0.00288507,0.00983562,19.38000000,-1.28000000,-0.00000000
49,0,0.02100000,0.33200000,0.94600000,-0.15000000,0.19000000,-0.09000000,0.01981741,0.00308445,0.00974118,19.38000000,-1.27000000,-0.00000000
50,0,0.02400000,0.33300000,0.94300000,0.02000000,0.24000000,0.01000000,0.01983859,0.00333859,0.00975177,19.38000000,-1.27000000,0.00000000
51,0,0.02400000,0.33300000,0.94300000,-0.08000000,-0.40000000,-0.11000000,0.01975258,0.00290854,0.00963350,19.38000000,-1.27000000,-0.00000000
52,0,0.02100000,0.32900000,0.94300000,-0.14000000,0.01000000,0.07000000,0.01960403,0.00291915,0.00970778,19.38000000,-1.27000000,-0.00000000
53,0,0.02100000,0.33800000,0.94300000,0.15000000,0.43000000,-0.07000000,0.02789018,0.02667277,0.00584091,19.38000000,-1.27000000,-0.00000000
54,0,0.02400000,0.32900000,0.94300000,-0.09000000,-0.02000000,-0.09000000,0.02779258,0.02665108,0.00574331,19.38000000,-1.27000000,-0.00000000
55,0,0.02400000,0.33600000,0.94100000,0.05000000,0.01000000,0.06000000,0.02784274,0.02666111,0.00580350,19.38000000,-1.28000000,-0.00000000
56,0,0.02300000,0.33400000,0.94500000,0.23000000,-0.01000000,0.15000000,0.02807329,0.02665109,0.00595386,19.38000000,-1.29000000,-0.00000000
57,0,0.02300000,0.32900000,0.94300000,0.01000000,-0.08000000,-0.07000000,0.02808326,0.02657133,0.00588408,19.38000000,-1.29000000,-0.00000000
58,0,0.01700000,0.32400000,0.94100000,-0.12000000,-0.04000000,-0.11000000,0.02796291,0.02653122,0.00577376,19.38000000,-1.29000000,-0.00000000
59,0,0.02600000,0.33000000,0.94300000,-0.02000000,0.10000000,-0.13000000,0.02683295,0.03218103,-0.00157100,19.38000000,-1.28000000,-0.00000000
60,0,0.02100000,0.33100000,0.94300000,0.26000000,-0.01000000,-0.09000000,0.02710523,0.03217056,-0.00166525,19.37000000,-1.29000000,-0.00000000
61,0,0.02000000,0.33400000,0.94500000,-0.20000000,0.07000000,0.18000000,0.02690470,0.03224074,-0.00148477,19.37000000,-1.29000000,-0.00000000
62,0,0.02300000,0.32900000,0.93900000,0.06000000,0.09000000,-0.17000000,0.02696438,0.03233025,-0.00165385,19.37000000,-1.29000000,-0.00000000
63,0,0.02400000,0.32700000,0.94300000,0.00000000,0.26000000,-0.12000000,0.02696438,0.03259249,-0.00177488,19.37000000,-1.29000000,-0.00000000
64,0,0.02800000,0.33400000,0.94000000,0.05000000,0.09000000,0.10000000,0.02701444,0.03268260,-0.00167476,19.37000000,-1.29000000,-0.00000000
65,0,0.02300000,0.33100000,0.94500000,0.10000000,0.02000000,-0.30000000,0.03256116,0.03379195,-0.01831493,19.37000000,-1.29000000,-0.00000000
66,0,0.02300000,0.33700000,0.94300000,-0.01000000,-0.11000000,0.09000000,0.03255056,0.03367536,-0.01821954,19.37000000,-1.29000000,-0.00000000
67,0,0.02400000,0.33200000,0.94100000,0.16000000,0.04000000,0.04000000,0.03271167,0.03371564,-0.01817926,19.38000000,-1.29000000,-0.00000000
68,0,0.02800000,0.33000000,0.94300000,-0.19000000,0.07000000,-0.00000000,0.03252226,0.03378542,-0.01817926,19.38000000,-1.29000000,-0.00000000
69,0,0.02100000,0.33100000,0.94700000,-0.20000000,0.20000000,-0.04000000,0.03232153,0.03398615,-0.01821941,19.38000000,-1.29000000,-0.00000000
70,0,0.02200000,0.32900000,0.93900000,-0.27000000,-0.16000000,-0.30000000,0.03205301,0.03382702,-0.01851777,19.37000000,-1.30000000,-0.00000000
71,0,0.02400000,0.33300000,0.94800000,0.14000000,0.00000000,0.01000000,0.03982963,0.03382702,-0.01796230,19.37000000,-1.29000000,-0.01000000
72,0,0.02300000,0.33300000,0.93600000,0.04000000,-0.03000000,0.13000000,0.03987168,0.03379549,-0.01782566,19.37000000,-1.29000000,-0.01000000
73,0,0.02100000,0.32900000,0.94400000,-0.12000000,0.25000000,0.12000000,0.03975021,0.03404853,-0.01770420,19.37000000,-1.30000000,-0.01000000
74,0,0.02400000,0.33100000,0.94200000,-0.04000000,0.05000000,-0.10000000,0.03971048,0.03409820,-0.01780353,19.38000000,-1.30000000,-0.01000000
75,0,0.02400000,0.32800000,0.94600000,-0.03000000,-0.02000000,-0.12000000,0.03968036,0.03407812,-0.01792402,19.38000000,-1.29000000,-0.01000000
76,0,0.02300000,0.33200000,0.93800000,-0.16000000,-0.12000000,0.01000000,0.03952100,0.03395860,-0.01791406,19.38000000,-1.29000000,-0.01000000
77,0,0.02500000,0.33000000,0.94400000,0.08000000,-0.26000000,-0.15000000,0.04403774,0.01927919,-0.02638296,19.37000000,-1.30000000,-0.01000000
78,0,0.02000000,0.33400000,0.94300000,-0.11000000,0.02000000,0.15000000,0.04392210,0.01930021,-0.02622526,19.38000000,-1.30000000,-0.01000000
79,0,0.01900000,0.33100000,0.94300000,0.03000000,0.12000000,-0.04000000,0.04395215,0.01942042,-0.02626533,19.38000000,-1.30000000,-0.01000000
80,0,0.02200000,0.33400000,0.94300000,-0.12000000,0.20000000,0.16000000,0.04383264,0.01961961,-0.02610597,19.38000000,-1.30000000,-0.01000000
81,0,0.02400000,0.33300000,0.94300000,-0.13000000,0.20000000,-0.04000000,0.04370415,0.01981728,-0.02614551,19.38000000,-1.30000000,-0.01000000
82,0,0.01900000,0.33300000,0.94400000,0.01000000,0.14000000,0.02000000,0.04371406,0.01995595,-0.02612570,19.38000000,-1.30000000,-0.01000000
83,0,0.02200000,0.33300000,0.93800000,0.06000000,0.08000000,0.27000000,0.04704605,0.02439861,-0.01113171,19.38000000,-1.30000000,-0.01000000
84,0,0.02500000,0.33400000,0.94300000,-0.07000000,-0.17000000,0.09000000,0.04697244,0.02421985,-0.01103708,19.38000000,-1.29000000,-0.01000000
85,0,0.02300000,0.33600000,0.94400000,-0.27000000,-0.01000000,-0.20000000,0.04670179,0.02420983,-0.01123756,19.38000000,-1.30000000,-0.01000000
86,0,0.02000000,0.33500000,0.94000000,0.14000000,-0.04000000,-0.04000000,0.04684273,0.02416956,-0.01127783,19.38000000,-1.30000000,-0.01000000
87,0,0.02000000,0.33300000,0.94200000,-0.02000000,-0.09000000,-0.11000000,0.04682285,0.02408009,-0.01138718,19.38000000,-1.29000000,-0.01000000
88,0,0.02300000,0.33400000,0.94500000,0.17000000,-0.08000000,0.06000000,0.04699188,0.02400055,-0.01132752,19.38000000,-1.29000000,-0.01000000
89,0,0.02200000,0.33300000,0.94300000,-0.21000000,0.16000000,-0.16000000,0.03470024,0.03336561,-0.02069258,19.38000000,-1.30000000,-0.01000000
90,0,0.02600000,0.33100000,0.94500000,-0.02000000,0.10000000,0.08000000,0.03467895,0.03347205,-0.02060743,19.38000000,-1.29000000,-0.01000000
91,0,0.02500000,0.32600000,0.94700000,0.27000000,-0.18000000,-0.14000000,0.03494883,0.03329213,-0.02074736,19.38000000,-1.30000000,-0.01000000
92,0,0.01800000,0.32800000,0.94400000,0.16000000,-0.03000000,0.11000000,0.03510758,0.03326237,-0.02063822,19.38000000,-1.30000000,-0.01000000
93,0,0.01900000,0.33600000,0.94400000,-0.05000000,0.04000000,0.17000000,0.03505662,0.03330313,-0.02046498,19.38000000,-1.30000000,-0.01000000
94,0,0.02500000,0.32900000,0.94300000,0.11000000,0.07000000,0.24000000,0.03516946,0.03337493,-0.02021879,19.38000000,-1.30000000,-0.01000000
95,0,0.01700000,0.33200000,0.94200000,-0.05000000,-0.13000000,-0.30000000,0.03511731,0.03323935,-0.02053167,19.38000000,-1.29000000,-0.01000000
96,0,0.01600000,0.33200000,0.94400000,0.01000000,0.27000000,0.03000000,0.03567328,0.04825039,-0.01886378,19.38000000,-1.30000000,-0.01000000
97,0,0.02100000,0.33100000,0.94400000,-0.12000000,0.22000000,-0.10000000,0.03554563,0.04848441,-0.01897015,19.38000000,-1.29000000,-0.01000000
98,0,0.02500000,0.33100000,0.95000000,-0.13000000,0.03000000,-0.11000000,0.03541182,0.04851529,-0.01908338,19.38000000,-1.29000000,-0.01000000
99,0,0.02200000,0.33100000,0.93600000,-0.12000000,-0.07000000,0.04000000,0.03528901,0.04844365,-0.01904244,19.38000000,-1.29000000,-0.01000000
100,0,0.02200000,0.33100000,0.94500000,0.11000000,0.02000000,0.05000000,0.03539907,0.04846366,-0.01899242,19.38000000,-1.29000000,-0.01000000
101,0,0.01900000,0.33300000,0.94600000,0.23000000,-0.02000000,-0.18000000,0.03563050,0.04844353,-0.01917354,19.38000000,-1.29000000,-0.01000000
102,0,0.02300000,0.32600000,0.94300000,-0.27000000,-0.22000000,-0.17000000,0.02042215,0.03605155,-0.02874916,19.38000000,-1.29000000,-0.01000000
103,0,0.02300000,0.33100000,0.94500000,0.06000000,-0.08000000,0.02000000,0.02048770,0.03596415,-0.02872731,19.38000000,-1.29000000,-0.01000000
104,0,0.02400000,0.33500000,0.94500000,0.13000000,-0.18000000,0.13000000,0.02062174,0.03577856,-0.02859328,19.38000000,-1.29000000,-0.01000000
105,0,0.01600000,0.33300000,0.94700000,-0.20000000,0.07000000,-0.00000000,0.02042216,0.03584841,-0.02859328,19.38000000,-1.29000000,-0.01000000
106,0,0.02300000,0.33200000,0.94500000,0.10000000,-0.22000000,-0.00000000,0.02052152,0.03562982,-0.02859328,19.38000000,-1.29000000,-0.01000000
107,0,0.01500000,0.32900000,0.94300000,0.23000000,0.08000000,0.18000000,0.02075010,0.03570933,-0.02841439,19.38000000,-1.29000000,-0.01000000
108,0,0.02300000,0.33200000,0.94400000,0.01000000,-0.04000000,0.12000000,0.02130334,0.03349636,-0.02177549,19.38000000,-1.29000000,-0.01000000
109,0,0.02000000,0.33100000,0.94400000,0.14000000,0.04000000,-0.10000000,0.02144732,0.03353750,-0.02187833,19.37000000,-1.29000000,-0.01000000
110,0,0.02600000,0.33300000,0.94300000,-0.06000000,0.20000000,0.01000000,0.02138682,0.03373917,-0.02186824,19.37000000,-1.29000000,-0.01000000
111,0,0.02100000,0.33600000,0.94300000,0.17000000,0.06000000,-0.21000000,0.02155520,0.03379860,-0.02207625,19.37000000,-1.29000000,-0.01000000
112,0,0.02700000,0.33100000,0.94600000,0.00000000,-0.07000000,-0.11000000,0.02155520,0.03372913,-0.02218541,19.37000000,-1.29000000,-0.01000000
113,0,0.02100000,0.33100000,0.94600000,-0.04000000,0.25000000,-0.00000000,0.02151560,0.03397664,-0.02218541,19.37000000,-1.29000000,-0.01000000
114,0,0.01700000,0.33300000,0.94400000,-0.09000000,-0.03000000,0.01000000,0.01642617,0.03228016,-0.02161992,19.37000000,-1.28000000,-0.01000000
115,0,0.02000000,0.33200000,0.94300000,-0.06000000,-0.08000000,-0.01000000,0.01636254,0.03219532,-0.02163053,19.37000000,-1.28000000,-0.01000000
116,0,0.02200000,0.33400000,0.94100000,-0.19000000,0.19000000,0.09000000,0.01617145,0.03238641,-0.02154001,19.37000000,-1.28000000,-0.01000000
117,0,0.02400000,0.33400000,0.94300000,-0.05000000,0.00000000,-0.12000000,0.01612187,0.03238641,-0.02165898,19.37000000,-1.28000000,-0.01000000
118,0,0.02200000,0.33300000,0.94500000,0.09000000,0.20000000,-0.08000000,0.01621057,0.03258351,-0.02173782,19.37000000,-1.28000000,-0.01000000
119,0,0.01700000,0.33100000,0.94600000,0.11000000,-0.02000000,-0.03000000,0.01632052,0.03256352,-0.02176781,19.37000000,-1.28000000,-0.01000000
120,0,0.01800000,0.32900000,0.94400000,0.00000000,0.07000000,0.35000000,0.01632052,0.03644958,-0.00233750,19.37000000,-1.28000000,-0.01000000
121,0,0.02100000,0.33000000,0.94300000,-0.03000000,0.12000000,0.03000000,0.01628854,0.03657748,-0.00230553,19.37000000,-1.28000000,-0.01000000
122,0,0.02200000,0.33000000,0.94400000,-0.04000000,0.05000000,-0.20000000,0.01624847,0.03662757,-0.00250592,19.37000000,-1.28000000,-0.01000000
123,0,0.02400000,0.33500000,0.94100000,0.16000000,0.21000000,0.24000000,0.01640881,0.03683803,-0.00226539,19.37000000,-1.28000000,-0.01000000
124,0,0.01700000,0.32600000,0.94800000,-0.11000000,0.04000000,-0.25000000,0.01627912,0.03688519,-0.00256017,19.37000000,-1.28000000,-0.01000000
125,0,0.02300000,0.33100000,0.94500000,0.09000000,0.16000000,-0.16000000,0.01637131,0.03704909,-0.00272406,19.37000000,-1.28000000,-0.01000000
126,0,0.02100000,0.32900000,0.94600000,-0.01000000,0.33000000,0.10000000,0.01581839,0.05529529,0.00280509,19.37000000,-1.28000000,-0.01000000
127,0,0.02200000,0.33400000,0.94700000,-0.10000000,0.13000000,0.01000000,0.01571159,0.05543413,0.00281577,19.37000000,-1.28000000,-0.01000000
128,0,0.02000000,0.33600000,0.94300000,-0.18000000,0.27000000,0.11000000,0.01550489,0.05574418,0.00294209,19.37000000,-1.28000000,-0.01000000
129,0,0.01800000,0.33300000,0.94600000,-0.07000000,0.03000000,0.18000000,0.01543100,0.05577584,0.00313209,19.37000000,-1.28000000,-0.01000000
130,0,0.01700000,0.33400000,0.94700000,0.14000000,0.15000000,-0.18000000,0.01557635,0.05593157,0.00294522,19.37000000,-1.27000000,-0.01000000
131,0,0.02300000,0.33000000,0.94500000,-0.19000000,0.06000000,0.05000000,0.01537755,0.05599435,0.00299753,19.37000000,-1.27000000,-0.01000000
132,0,0.02400000,0.33300000,0.94000000,-0.08000000,0.19000000,0.08000000,0.01088021,0.06667554,0.00749488,19.37000000,-1.28000000,-0.01000000
133,0,0.02700000,0.33200000,0.94200000,0.11000000,-0.03000000,0.35000000,0.01100275,0.06664212,0.00788478,19.37000000,-1.27000000,-0.01000000
134,0,0.02300000,0.32900000,0.94200000,-0.13000000,-0.08000000,-0.40000000,0.01086524,0.06655750,0.00746169,19.37000000,-1.28000000,-0.01000000
135,0,0.02500000,0.33000000,0.93900000,-0.13000000,-0.04000000,-0.12000000,0.01073155,0.06651637,0.00733828,19.37000000,-1.28000000,-0.01000000
136,0,0.02600000,0.33100000,0.94400000,0.00000000,0.04000000,0.07000000,0.01073155,0.06655674,0.00740893,19.37000000,-1.27000000,-0.01000000
137,0,0.02100000,0.33500000,0.94000000,-0.21000000,0.02000000,0.13000000,0.01052175,0.06657672,0.00753881,19.37000000,-1.27000000,-0.01000000
138,0,0.02400000,0.33200000,0.94600000,0.37000000,0.01000000,-0.17000000,0.03100113,0.06713022,-0.00187064,19.38000000,-1.27000000,-0.01000000
139,0,0.02200000,0.33400000,0.93800000,-0.07000000,-0.06000000,0.15000000,0.03092714,0.06706680,-0.00171208,19.38000000,-1.27000000,-0.01000000
140,0,0.02300000,0.33000000,0.94300000,0.07000000,0.20000000,0.04000000,0.03099769,0.06726838,-0.00167177,19.38000000,-1.27000000,-0.01000000
141,0,0.02000000,0.33200000,0.93700000,0.13000000,-0.16000000,-0.03000000,0.03112779,0.06710826,-0.00170179,19.38000000,-1.27000000,-0.01000000
142,0,0.02200000,0.33200000,0.94200000,-0.02000000,-0.19000000,0.15000000,0.03110783,0.06691866,-0.00155211,19.38000000,-1.27000000,-0.01000000
143,0,0.02200000,0.33400000,0.94600000,0.03000000,0.16000000,-0.10000000,0.03113844,0.06708191,-0.00165414,19.38000000,-1.27000000,-0.01000000
144,0,0.02300000,0.33400000,0.94300000,-0.02000000,0.02000000,0.18000000,0.03002792,0.06819243,0.00834052,19.38000000,-1.27000000,-0.01000000
145,0,0.02200000,0.33100000,0.94400000,0.05000000,-0.03000000,0.14000000,0.03008033,0.06816098,0.00848727,19.38000000,-1.27000000,-0.01000000
146,0,0.02600000,0.33200000,0.94200000,0.03000000,0.18000000,-0.12000000,0.03011029,0.06834073,0.00836744,19.38000000,-1.27000000,-0.01000000
147,0,0.02200000,0.33100000,0.94200000,0.07000000,-0.00000000,0.20000000,0.03017969,0.06834073,0.00856572,19.38000000,-1.27000000,-0.01000000
148,0,0.02100000,0.32800000,0.94100000,0.11000000,-0.25000000,0.06000000,0.03028870,0.06809299,0.00862518,19.38000000,-1.27000000,-0.01000000
149,0,0.01500000,0.33300000,0.94300000,0.27000000,-0.09000000,-0.19000000,0.03056257,0.06800170,0.00843246,19.38000000,-1.27000000,-0.01000000
150,0,0.02400000,0.33200000,0.94600000,0.17000000,-0.05000000,-0.01000000,0.04016073,0.06517871,0.00786786,19.38000000,-1.27000000,-0.01000000
151,0,0.02100000,0.32900000,0.94400000,-0.22000000,0.30000000,0.03000000,0.03993029,0.06549295,0.00789929,19.38000000,-1.27000000,-0.01000000
152,0,0.01900000,0.33500000,0.94300000,-0.10000000,0.01000000,-0.17000000,0.03982995,0.06550298,0.00772871,19.37000000,-1.27000000,-0.01000000
153,0,0.02100000,0.33100000,0.94500000,-0.09000000,-0.09000000,-0.01000000,0.03974059,0.06541362,0.00771878,19.37000000,-1.27000000,-0.01000000
154,0,0.02200000,0.32500000,0.94700000,-0.02000000,-0.05000000,0.21000000,0.03972060,0.06536366,0.00792864,19.37000000,-1.27000000,-0.01000000
155,0,0.02400000,0.33000000,0.94000000,-0.01000000,-0.15000000,0.03000000,0.03971067,0.06521458,0.00795846,19.37000000,-1.27000000,-0.01000000
156,0,0.02000000,0.32900000,0.94800000,0.09000000,-0.15000000,-0.06000000,0.04471287,0.05687758,0.00462366,19.37000000,-1.27000000,-0.01000000
157,0,0.02200000,0.33100000,0.94200000,-0.12000000,0.06000000,-0.08000000,0.04458728,0.05694037,0.00453993,19.37000000,-1.27000000,-0.01000000
158,0,0.02100000,0.33500000,0.94000000,0.10000000,0.03000000,-0.19000000,0.04468779,0.05697053,0.00434898,19.38000000,-1.27000000,-0.01000000
159,0,0.02000000,0.33100000,0.93900000,-0.16000000,0.15000000,0.05000000,0.04452744,0.05712085,0.00439909,19.38000000,-1.27000000,-0.01000000
160,0,0.02000000,0.33400000,0.94500000,-0.04000000,-0.06000000,-0.08000000,0.04448770,0.05706125,0.00431962,19.38000000,-1.27000000,-0.01000000
161,0,0.02900000,0.33700000,0.94600000,-0.06000000,-0.16000000,0.00000000,0.04442762,0.05690102,0.00431962,19.38000000,-1.27000000,-0.01000000
162,0,0.03000000,0.33400000,0.94100000,-0.19000000,-0.01000000,0.01000000,0.03388250,0.05634601,0.00487462,19.38000000,-1.27000000,-0.01000000
163,0,0.02500000,0.33300000,0.94000000,-0.08000000,-0.06000000,-0.27000000,0.03379823,0.05628280,0.00459020,19.38000000,-1.27000000,-0.01000000
164,0,0.02700000,0.33400000,0.94000000,0.01000000,0.06000000,-0.10000000,0.03380826,0.05634298,0.00448991,19.38000000,-1.27000000,-0.01000000
165,0,0.02100000,0.32800000,0.93800000,-0.04000000,0.22000000,0.04000000,0.03376844,0.05656199,0.00452973,19.38000000,-1.27000000,-0.01000000
166,0,0.02300000,0.33100000,0.94400000,-0.20000000,-0.15000000,0.10000000,0.03355455,0.05640158,0.00463667,19.38000000,-1.27000000,-0.01000000
167,0,0.02500000,0.32700000,0.94300000,0.00000000,-0.03000000,-0.02000000,0.03355455,0.05637123,0.00461644,19.38000000,-1.27000000,-0.01000000
168,0,0.02400000,0.33100000,0.94500000,0.08000000,-0.17000000,-0.08000000,0.03806577,0.04678491,0.00010523,19.38000000,-1.27000000,-0.01000000
169,0,0.02300000,0.33400000,0.94300000,0.02000000,-0.06000000,-0.14000000,0.03808709,0.04672094,-0.00004402,19.38000000,-1.27000000,-0.01000000
170,0,0.02100000,0.33200000,0.94300000,-0.16000000,-0.09000000,-0.08000000,0.03792319,0.04662875,-0.00012597,19.38000000,-1.27000000,-0.01000000
171,0,0.02300000,0.33100000,0.94800000,-0.30000000,0.12000000,-0.15000000,0.03762297,0.04674884,-0.00027608,19.38000000,-1.27000000,-0.01000000
172,0,0.02100000,0.33200000,0.94100000,-0.08000000,0.07000000,0.09000000,0.03754333,0.04681853,-0.00018649,19.38000000,-1.27000000,-0.01000000
173,0,0.02600000,0.33200000,0.94300000,-0.09000000,-0.18000000,-0.20000000,0.03745300,0.04663788,-0.00038721,19.38000000,-1.27000000,-0.01000000
174,0,0.02400000,0.33100000,0.94300000,0.03000000,-0.17000000,-0.24000000,0.03911683,0.03720950,-0.01369786,19.38000000,-1.27000000,-0.01000000
175,0,0.02100000,0.33100000,0.94100000,-0.00000000,-0.27000000,0.21000000,0.03911683,0.03692726,-0.01347834,19.38000000,-1.27000000,-0.01000000
176,0,0.02400000,0.33500000,0.94400000,-0.13000000,0.08000000,0.22000000,0.03898677,0.03700730,-0.01325823,19.38000000,-1.27000000,-0.01000000
177,0,0.02300000,0.33100000,0.94700000,0.09000000,-0.06000000,0.00000000,0.03907681,0.03694727,-0.01325823,19.38000000,-1.27000000,-0.01000000
178,0,0.02500000,0.33200000,0.94300000,-0.06000000,0.21000000,0.09000000,0.03901737,0.03715533,-0.01316906,19.38000000,-1.28000000,-0.01000000
179,0,0.02500000,0.32900000,0.94100000,0.16000000,0.00000000,0.00000000,0.03917627,0.03715533,-0.01316906,19.38000000,-1.27000000,-0.01000000
180,0,0.01800000,0.33400000,0.94400000,0.05000000,0.01000000,0.06000000,0.04195689,0.03771145,-0.00983232,19.38000000,-1.27000000,-0.01000000
181,0,0.02400000,0.33100000,0.94200000,-0.06000000,0.07000000,0.23000000,0.04189400,0.03778482,-0.00959123,19.38000000,-1.27000000,-0.01000000
182,0,0.02200000,0.33000000,0.94600000,0.05000000,-0.12000000,-0.01000000,0.04194404,0.03766473,-0.00960124,19.38000000,-1.27000000,-0.01000000
183,0,0.01700000,0.33300000,0.94000000,-0.10000000,0.06000000,-0.07000000,0.04184170,0.03772614,-0.00967288,19.38000000,-1.27000000,-0.01000000
184,0,0.01800000,0.33300000,0.94100000,-0.31000000,-0.02000000,-0.06000000,0.04153413,0.03770629,-0.00973241,19.38000000,-1.27000000,-0.01000000
185,0,0.02500000,0.33400000,0.94100000,0.10000000,0.07000000,0.18000000,0.04163365,0.03777596,-0.00955326,19.38000000,-1.27000000,-0.01000000
186,0,0.02400000,0.33200000,0.94500000,0.06000000,-0.08000000,-0.20000000,0.04502561,0.03325335,-0.02085980,19.38000000,-1.27000000,-0.01000000
187,0,0.02300000,0.33300000,0.94300000,-0.03000000,0.21000000,0.08000000,0.04499113,0.03349474,-0.02076784,19.38000000,-1.27000000,-0.01000000
188,0,0.02300000,0.33300000,0.94400000,0.12000000,-0.06000000,0.03000000,0.04511391,0.03343335,-0.02073715,19.38000000,-1.27000000,-0.01000000
189,0,0.02200000,0.33200000,0.94500000,-0.29000000,0.05000000,0.29000000,0.04482459,0.03348324,-0.02044783,19.38000000,-1.27000000,-0.01000000
190,0,0.02500000,0.33300000,0.94800000,0.01000000,-0.01000000,0.01000000,0.04483462,0.03347320,-0.02043780,19.38000000,-1.27000000,-0.01000000
191,0,0.02200000,0.33600000,0.94600000,0.02000000,0.28000000,0.03000000,0.04485473,0.03375475,-0.02040763,19.38000000,-1.27000000,-0.01000000
192,0,0.02400000,0.33000000,0.94600000,0.19000000,-0.17000000,-0.10000000,0.05535682,0.02435815,-0.02593504,19.38000000,-1.27000000,-0.01000000
193,0,0.02100000,0.33200000,0.93900000,0.21000000,0.12000000,0.11000000,0.05557674,0.02448382,-0.02581985,19.38000000,-1.27000000,-0.01000000
194,0,0.01800000,0.33100000,0.93900000,0.14000000,-0.13000000,-0.19000000,0.05571841,0.02435226,-0.02601212,19.38000000,-1.27000000,-0.01000000
195,0,0.02800000,0.33000000,0.94200000,-0.03000000,-0.07000000,0.36000000,0.05568861,0.02428273,-0.02565451,19.38000000,-1.27000000,-0.01000000
196,0,0.01700000,0.32800000,0.94100000,-0.00000000,0.06000000,-0.12000000,0.05568861,0.02434221,-0.02577348,19.38000000,-1.27000000,-0.01000000
197,0,0.01600000,0.32900000,0.94300000,-0.10000000,0.07000000,-0.10000000,0.05558884,0.02441205,-0.02587325,19.38000000,-1.27000000,-0.01000000
198,0,0.02900000,0.33500000,0.94100000,-0.01000000,0.12000000,0.16000000,0.05503207,0.03109329,-0.01696492,19.38000000,-1.27000000,-0.01000000
199,0,0.02200000,0.33300000,0.94700000,-0.04000000,0.12000000,-0.09000000,0.05498973,0.03122034,-0.01706020,19.38000000,-1.27000000,-0.01000000
200,0,0.02200000,0.33400000,0.94300000,0.12000000,-0.08000000,-0.02000000,0.05512083,0.03113293,-0.01708205,19.38000000,-1.27000000,-0.01000000
201,0,0.02300000,0.33000000,0.94100000,0.18000000,0.09000000,0.06000000,0.05531556,0.03123030,-0.01701715,19.38000000,-1.27000000,-0.01000000
202,0,0.02300000,0.33000000,0.94900000,0.17000000,0.18000000,0.03000000,0.05549756,0.03142300,-0.01698503,19.38000000,-1.27000000,-0.01000000
203,0,0.02100000,0.33000000,0.94300000,0.18000000,0.14000000,0.02000000,0.05570250,0.03158240,-0.01696226,19.38000000,-1.27000000,-0.01000000
204,0,0.02000000,0.33100000,0.94700000,-0.01000000,0.08000000,-0.02000000,0.05514295,0.03605879,-0.01808135,19.38000000,-1.27000000,-0.01000000
205,0,0.01800000,0.32700000,0.93900000,0.16000000,0.09000000,-0.13000000,0.05531734,0.03615688,-0.01822304,19.38000000,-1.26000000,-0.01000000
206,0,0.01900000,0.33400000,0.94500000,0.05000000,0.14000000,-0.19000000,0.05537048,0.03630569,-0.01842501,19.38000000,-1.26000000,-0.01000000
207,0,0.02400000,0.33300000,0.94500000,0.19000000,-0.22000000,0.11000000,0.05557413,0.03606990,-0.01830711,19.38000000,-1.26000000,-0.01000000
208,0,0.02300000,0.33400000,0.94200000,-0.11000000,0.09000000,0.00000000,0.05545691,0.03616580,-0.01830711,19.38000000,-1.26000000,-0.01000000
209,0,0.01600000,0.32800000,0.94700000,-0.11000000,-0.13000000,0.12000000,0.05533828,0.03602560,-0.01817769,19.38000000,-1.26000000,-0.01000000
210,0,0.02100000,0.33400000,0.94400000,-0.18000000,-0.08000000,-0.19000000,0.04486447,0.03137058,-0.02923338,19.38000000,-1.26000000,-0.01000000
211,0,0.02200000,0.32700000,0.94300000,-0.17000000,-0.08000000,-0.13000000,0.04468032,0.03128392,-0.02937420,19.38000000,-1.26000000,-0.01000000
212,0,0.02500000,0.33000000,0.94200000,-0.06000000,0.03000000,-0.28000000,0.04461686,0.03131565,-0.02967036,19.38000000,-1.26000000,-0.01000000
213,0,0.02500000,0.33200000,0.94300000,-0.08000000,0.09000000,-0.31000000,0.04453149,0.03141168,-0.03000114,19.37000000,-1.26000000,-0.01000000
214,0,0.02200000,0.33300000,0.94200000,-0.16000000,-0.33000000,0.15000000,0.04435959,0.03105712,-0.02983998,19.38000000,-1.26000000,-0.01000000
215,0,0.02100000,0.32900000,0.94500000,-0.02000000,0.09000000,-0.15000000,0.04433796,0.03115444,-0.03000218,19.38000000,-1.26000000,-0.01000000
216,0,0.01900000,0.33300000,0.94500000,0.14000000,-0.15000000,0.00000000,0.04448401,0.03099797,-0.03000218,19.38000000,-1.26000000,-0.01000000
217,0,0.02300000,0.33100000,0.94500000,0.17000000,0.15000000,-0.09000000,0.05386103,0.03927181,-0.03496648,19.38000000,-1.26000000,-0.01000000
218,0,0.02300000,0.33200000,0.93700000,0.22000000,0.11000000,-0.12000000,0.05411182,0.03939721,-0.03510328,19.38000000,-1.26000000,-0.01000000
219,0,0.02000000,0.33400000,0.94800000,0.02000000,-0.09000000,-0.21000000,0.05413201,0.03930639,-0.03531519,19.38000000,-1.26000000,-0.01000000
220,0,0.02300000,0.33300000,0.94200000,0.01000000,-0.23000000,0.26000000,0.05414197,0.03907720,-0.03505611,19.38000000,-1.26000000,-0.01000000
221,0,0.02100000,0.32800000,0.94300000,0.16000000,0.03000000,-0.11000000,0.05430182,0.03910718,-0.03516601,19.38000000,-1.26000000,-0.01000000
222,0,0.02300000,0.33300000,0.94700000,-0.29000000,-0.06000000,-0.42000000,0.05400877,0.03904655,-0.03559043,19.38000000,-1.26000000,-0.01000000
223,0,0.02400000,0.33300000,0.94200000,-0.11000000,-0.15000000,0.11000000,0.04780685,0.03058938,-0.02938851,19.38000000,-1.26000000,-0.01000000
224,0,0.02300000,0.33200000,0.94700000,0.01000000,-0.09000000,-0.11000000,0.04781734,0.03049500,-0.02950386,19.38000000,-1.26000000,-0.01000000
225,0,0.02600000,0.33300000,0.94000000,0.08000000,-0.22000000,-0.03000000,0.04789683,0.03027641,-0.02953367,19.37000000,-1.26000000,-0.01000000
226,0,0.02300000,0.33200000,0.94500000,-0.18000000,0.26000000,-0.28000000,0.04771849,0.03053400,-0.02981108,19.37000000,-1.26000000,-0.01000000
227,0,0.02400000,0.33100000,0.94200000,-0.18000000,-0.20000000,0.32000000,0.04753905,0.03033462,-0.02949206,19.37000000,-1.26000000,-0.01000000
228,0,0.02500000,0.33300000,0.94100000,0.14000000,-0.01000000,0.03000000,0.04767832,0.03032467,-0.02946222,19.37000000,-1.26000000,-0.01000000
229,0,0.02700000,0.33700000,0.94200000,0.05000000,-0.14000000,-0.07000000,0.05045515,0.02254954,-0.03334978,19.37000000,-1.26000000,-0.01000000
230,0,0.02300000,0.32900000,0.93900000,0.11000000,0.06000000,0.06000000,0.05057034,0.02261238,-0.03328694,19.38000000,-1.26000000,-0.01000000
231,0,0.02300000,0.33200000,0.94600000,-0.08000000,-0.04000000,0.31000000,0.05049049,0.02257245,-0.03297753,19.38000000,-1.27000000,-0.01000000
232,0,0.02200000,0.33100000,0.94300000,0.17000000,-0.14000000,0.03000000,0.05065936,0.02243338,-0.03294773,19.37000000,-1.27000000,-0.01000000
233,0,0.02000000,0.33000000,0.94500000,-0.04000000,0.00000000,-0.06000000,0.05061929,0.02243338,-0.03300784,19.37000000,-1.27000000,-0.01000000
234,0,0.02100000,0.33400000,0.94200000,0.05000000,-0.00000000,0.00000000,0.05067146,0.02243338,-0.03300784,19.37000000,-1.27000000,-0.01000000
235,0,0.02400000,0.33200000,0.94600000,0.07000000,-0.09000000,0.03000000,0.05456363,0.01742916,-0.03133977,19.37000000,-1.27000000,-0.01000000
236,0,0.02500000,0.33500000,0.94300000,0.05000000,-0.00000000,0.03000000,0.05461592,0.01742916,-0.03130840,19.37000000,-1.27000000,-0.01000000
237,0,0.02800000,0.32900000,0.93900000,0.10000000,0.22000000,-0.03000000,0.05471530,0.01764781,-0.03133821,19.37000000,-1.26000000,-0.01000000
238,0,0.02300000,0.33000000,0.94300000,-0.06000000,0.07000000,0.32000000,0.05465596,0.01771704,-0.03102171,19.37000000,-1.27000000,-0.01000000
239,0,0.02100000,0.33000000,0.94400000,0.07000000,-0.12000000,-0.08000000,0.05472706,0.01759515,-0.03110297,19.37000000,-1.27000000,-0.01000000
240,0,0.02200000,0.33100000,0.94500000,0.21000000,-0.20000000,0.03000000,0.05494523,0.01738737,-0.03107180,19.37000000,-1.27000000,-0.01000000
241,0,0.02200000,0.33200000,0.94200000,-0.07000000,0.10000000,0.06000000,0.05099858,0.02302543,-0.02768897,19.37000000,-1.27000000,-0.01000000
242,0,0.01700000,0.33500000,0.94000000,-0.12000000,-0.10000000,0.23000000,0.05087140,0.02291945,-0.02744520,19.37000000,-1.27000000,-0.01000000
243,0,0.01900000,0.33500000,0.94400000,-0.07000000,-0.06000000,-0.26000000,0.05080046,0.02285864,-0.02770868,19.37000000,-1.27000000,-0.01000000
244,0,0.02400000,0.33000000,0.94200000,0.03000000,-0.15000000,-0.03000000,0.05083135,0.02270420,-0.02773956,19.37000000,-1.27000000,-0.01000000
245,0,0.01900000,0.33400000,0.94300000,0.12000000,0.42000000,0.11000000,0.05095110,0.02312331,-0.02762980,19.37000000,-1.27000000,-0.01000000
246,0,0.02400000,0.33000000,0.94400000,-0.20000000,-0.10000000,-0.02000000,0.05075128,0.02302341,-0.02764978,19.37000000,-1.27000000,-0.01000000
247,0,0.02200000,0.33300000,0.94300000,-0.12000000,-0.01000000,0.11000000,0.04409338,0.02246858,-0.02154670,19.37000000,-1.27000000,-0.01000000
248,0,0.02400000,0.33300000,0.94500000,0.11000000,-0.01000000,0.17000000,0.04421283,0.02245772,-0.02136211,19.37000000,-1.27000000,-0.01000000
249,0,0.02400000,0.33400000,0.94300000,-0.02000000,0.01000000,-0.03000000,0.04419287,0.02246770,-0.02139204,19.37000000,-1.27000000,-0.01000000
250,0,0.02200000,0.32600000,0.94000000,0.12000000,-0.02000000,0.09000000,0.04431264,0.02244774,-0.02130221,19.37000000,-1.27000000,-0.01000000
251,0,0.02000000,0.33000000,0.94500000,-0.01000000,-0.02000000,-0.06000000,0.04430273,0.02242790,-0.02136173,19.37000000,-1.27000000,-0.01000000
252,0,0.02500000,0.33300000,0.93700000,0.27000000,0.04000000,-0.17000000,0.04456990,0.02246748,-0.02152995,19.37000000,-1.27000000,-0.01000000
253,0,0.02400000,0.32800000,0.94200000,-0.16000000,0.09000000,0.30000000,0.03568656,0.02746436,-0.00487369,19.37000000,-1.27000000,-0.01000000
254,0,0.01900000,0.33000000,0.93900000,0.10000000,-0.04000000,-0.15000000,0.03579143,0.02742242,-0.00503099,19.37000000,-1.27000000,-0.01000000
255,0,0.02500000,0.32900000,0.94300000,-0.01000000,0.22000000,-0.09000000,0.03578150,0.02764085,-0.00512035,19.37000000,-1.27000000,-0.01000000
256,0,0.01700000,0.33200000,0.94200000,-0.03000000,-0.24000000,-0.12000000,0.03575137,0.02739981,-0.00524087,19.37000000,-1.27000000,-0.01000000
257,0,0.02100000,0.32900000,0.94400000,0.13000000,0.40000000,0.08000000,0.03588032,0.02779658,-0.00516151,19.37000000,-1.27000000,-0.01000000
258,0,0.02100000,0.33000000,0.94300000,-0.14000000,0.03000000,0.09000000,0.03574122,0.02782639,-0.00507209,19.37000000,-1.27000000,-0.01000000
259,0,0.01900000,0.33100000,0.94100000,-0.19000000,-0.14000000,0.12000000,0.02502070,0.01992706,0.00169876,19.37000000,-1.27000000,-0.01000000
260,0,0.02000000,0.33600000,0.94300000,0.22000000,0.15000000,0.11000000,0.02525812,0.02008894,0.00181747,19.37000000,-1.27000000,-0.01000000
261,0,0.02600000,0.32900000,0.94600000,0.08000000,-0.13000000,-0.02000000,0.02533963,0.01995649,0.00179710,19.37000000,-1.27000000,-0.01000000
262,0,0.02400000,0.33400000,0.94300000,-0.00000000,0.00000000,0.01000000,0.02533963,0.01995649,0.00180743,19.37000000,-1.27000000,-0.01000000
263,0,0.02700000,0.33200000,0.94400000,0.15000000,0.00000000,0.00000000,0.02548824,0.01995649,0.00180743,19.37000000,-1.27000000,-0.01000000
264,0,0.02400000,0.32900000,0.94000000,-0.21000000,0.08000000,0.12000000,0.02527974,0.02003592,0.00192658,19.37000000,-1.27000000,-0.01000000
265,0,0.02500000,0.32900000,0.94200000,0.10000000,0.02000000,0.29000000,0.03082641,0.02114525,0.01801194,19.37000000,-1.27000000,-0.01000000
266,0,0.02300000,0.33500000,0.94300000,0.12000000,0.10000000,-0.10000000,0.03095211,0.02125000,0.01790719,19.37000000,-1.27000000,-0.01000000
267,0,0.01900000,0.32800000,0.94000000,0.09000000,0.03000000,0.00000000,0.03104286,0.02128025,0.01790719,19.37000000,-1.27000000,-0.01000000
268,0,0.02200000,0.32800000,0.94200000,0.02000000,0.14000000,-0.30000000,0.03106274,0.02141942,0.01760897,19.37000000,-1.27000000,-0.01000000
269,0,0.02000000,0.33300000,0.94400000,-0.04000000,0.25000000,-0.09000000,0.03102310,0.02166716,0.01751978,19.37000000,-1.27000000,-0.01000000
270,0,0.02000000,0.32900000,0.94200000,0.19000000,-0.11000000,0.07000000,0.03121619,0.02155538,0.01759092,19.38000000,-1.27000000,-0.01000000
271,0,0.01900000,0.33500000,0.94100000,-0.15000000,0.02000000,-0.05000000,0.02286413,0.02266898,0.01480690,19.38000000,-1.27000000,-0.01000000
272,0,0.02000000,0.33100000,0.94000000,0.06000000,-0.04000000,0.09000000,0.02292750,0.02262674,0.01490195,19.38000000,-1.26000000,-0.01000000
273,0,0.02700000,0.33200000,0.93900000,0.05000000,0.02000000,0.29000000,0.02297801,0.02264695,0.01519493,19.38000000,-1.26000000,-0.01000000
274,0,0.02300000,0.33100000,0.94200000,0.33000000,-0.07000000,0.20000000,0.02330786,0.02257698,0.01539484,19.38000000,-1.27000000,-0.01000000
275,0,0.02000000,0.33200000,0.93900000,-0.11000000,0.16000000,0.04000000,0.02319846,0.02273611,0.01543462,19.38000000,-1.27000000,-0.01000000
276,0,0.01700000,0.33100000,0.94200000,0.05000000,-0.08000000,0.12000000,0.02324818,0.02265656,0.01555394,19.38000000,-1.27000000,-0.01000000
277,0,0.02600000,0.33200000,0.94000000,-0.04000000,-0.02000000,0.15000000,0.02098880,0.02152687,0.02402662,19.38000000,-1.27000000,-0.01000000
278,0,0.02300000,0.33400000,0.94600000,0.11000000,0.13000000,-0.07000000,0.02114428,0.02171062,0.02392768,19.38000000,-1.27000000,-0.01000000
279,0,0.02600000,0.32800000,0.93800000,0.36000000,0.23000000,0.18000000,0.02161638,0.02201224,0.02416373,19.38000000,-1.27000000,-0.01000000
280,0,0.01600000,0.32900000,0.94500000,-0.08000000,0.08000000,-0.21000000,0.02151298,0.02211565,0.02389229,19.38000000,-1.26000000,-0.01000000
281,0,0.02800000,0.32900000,0.94200000,-0.06000000,0.06000000,-0.01000000,0.02143531,0.02219332,0.02387935,19.38000000,-1.27000000,-0.01000000
282,0,0.02100000,0.33600000,0.94700000,-0.02000000,-0.21000000,0.13000000,0.02140903,0.02191737,0.02405017,19.38000000,-1.27000000,-0.01000000
283,0,0.02500000,0.32900000,0.94500000,0.03000000,0.15000000,-0.23000000,0.02302671,0.03000578,0.01164794,19.38000000,-1.27000000,-0.01000000
284,0,0.01900000,0.33100000,0.94300000,0.01000000,0.13000000,-0.16000000,0.02304034,0.03018302,0.01142980,19.38000000,-1.27000000,-0.01000000
285,0,0.02800000,0.33600000,0.94600000,-0.13000000,-0.07000000,0.21000000,0.02287110,0.03009189,0.01170319,19.38000000,-1.27000000,-0.01000000
286,0,0.02600000,0.33500000,0.94200000,0.05000000,-0.02000000,0.09000000,0.02294223,0.03006344,0.01183121,19.38000000,-1.27000000,-0.01000000
287,0,0.02100000,0.33300000,0.94000000,-0.07000000,0.08000000,0.11000000,0.02284881,0.03017020,0.01197801,19.38000000,-1.27000000,-0.01000000
288,0,0.02100000,0.33100000,0.94200000,0.03000000,0.07000000,-0.02000000,0.02288888,0.03026370,0.01195130,19.38000000,-1.27000000,-0.01000000
289,0,0.02100000,0.33100000,0.94500000,-0.05000000,0.02000000,0.02000000,0.02018749,0.03134426,0.01303186,19.38000000,-1.27000000,-0.01000000
290,0,0.02400000,0.34100000,0.94400000,-0.10000000,-0.36000000,-0.01000000,0.02004187,0.03082006,0.01301730,19.38000000,-1.27000000,-0.01000000
291,0,0.02600000,0.33200000,0.94000000,-0.19000000,-0.09000000,0.12000000,0.01977595,0.03069409,0.01318525,19.38000000,-1.27000000,-0.01000000
292,0,0.02300000,0.33100000,0.94400000,-0.19000000,-0.26000000,-0.02000000,0.01952628,0.03035244,0.01315897,19.38000000,-1.27000000,-0.01000000
293,0,0.02000000,0.32900000,0.94400000,0.06000000,-0.12000000,0.21000000,0.01960599,0.03019302,0.01343797,19.38000000,-1.27000000,-0.01000000
294,0,0.01700000,0.33100000,0.94500000,0.14000000,-0.05000000,0.03000000,0.01979577,0.03012524,0.01347863,19.38000000,-1.27000000,-0.01000000
295,0,0.01900000,0.33400000,0.94400000,-0.12000000,0.11000000,0.18000000,0.01323623,0.03613815,0.02331794,19.38000000,-1.27000000,-0.01000000
296,0,0.02200000,0.33000000,0.94300000,-0.17000000,0.10000000,-0.16000000,0.01299558,0.03627971,0.02309144,19.38000000,-1.27000000,-0.01000000
297,0,0.02500000,0.33500000,0.94300000,0.10000000,-0.02000000,0.08000000,0.01312529,0.03625377,0.02319521,19.38000000,-1.27000000,-0.01000000
298,0,0.02000000,0.33200000,0.94700000,0.05000000,-0.05000000,-0.34000000,0.01318982,0.03618923,0.02275639,19.38000000,-1.27000000,-0.01000000
299,0,0.03100000,0.32900000,0.94300000,0.17000000,-0.35000000,-0.10000000,0.01340818,0.03573967,0.02262794,19.38000000,-1.27000000,-0.01000000
300,0,0.02000000,0.33300000,0.94500000,-0.01000000,0.16000000,-0.18000000,0.01339477,0.03595419,0.02238661,19.38000000,-1.27000000,-0.01000000
301,0,0.02700000,0.33300000,0.94400000,0.03000000,0.02000000,-0.10000000,0.01500615,0.03702844,0.01701534,19.38000000,-1.27000000,-0.01000000
302,0,0.01900000,0.33400000,0.94300000,0.05000000,0.02000000,-0.04000000,0.01507271,0.03705507,0.01696209,19.38000000,-1.27000000,-0.01000000
303,0,0.02100000,0.33000000,0.94600000,0.00000000,-0.24000000,-0.06000000,0.01507271,0.03674845,0.01688544,19.38000000,-1.27000000,-0.01000000
304,0,0.02300000,0.33200000,0.94400000,0.08000000,-0.12000000,-0.05000000,0.01517833,0.03659003,0.01681943,19.38000000,-1.27000000,-0.01000000
305,0,0.02200000,0.32700000,0.94300000,-0.01000000,-0.08000000,0.09000000,0.01516505,0.03648378,0.01693896,19.38000000,-1.27000000,-0.01000000
306,0,0.02400000,0.33200000,0.94400000,0.04000000,0.00000000,-0.16000000,0.01521736,0.03648378,0.01672974,19.38000000,-1.27000000,-0.01000000
307,0,0.02700000,0.33500000,0.94700000,0.10000000,0.10000000,-0.10000000,0.02071983,0.04198625,0.01122727,19.38000000,-1.27000000,-0.01000000
308,0,0.02400000,0.33700000,0.94000000,0.08000000,0.01000000,0.06000000,0.02082777,0.04199975,0.01130823,19.38000000,-1.27000000,-0.01000000
309,0,0.01800000,0.33100000,0.94300000,0.16000000,-0.19000000,0.17000000,0.02103535,0.04175325,0.01152877,19.38000000,-1.27000000,-0.01000000
310,0,0.02100000,0.32500000,0.94300000,-0.10000000,0.21000000,-0.22000000,0.02090425,0.04202855,0.01124037,19.38000000,-1.27000000,-0.01000000
311,0,0.02300000,0.33500000,0.94200000,0.14000000,-0.12000000,-0.24000000,0.02108545,0.04187324,0.01092975,19.38000000,-1.27000000,-0.01000000
312,0,0.02400000,0.33300000,0.94400000,0.14000000,0.17000000,0.13000000,0.02127161,0.04209930,0.01110262,19.38000000,-1.27000000,-0.01000000
313,0,0.02400000,0.33100000,0.94100000,0.06000000,0.15000000,-0.10000000,0.02450679,0.05018725,0.00571066,19.38000000,-1.27000000,-0.01000000
314,0,0.02400000,0.33300000,0.94000000,-0.18000000,-0.08000000,0.07000000,0.02425649,0.05007600,0.00580800,19.38000000,-1.27000000,-0.01000000
315,0,0.01500000,0.33500000,0.94000000,-0.09000000,-0.21000000,-0.11000000,0.02413306,0.04978799,0.00565713,19.38000000,-1.27000000,-0.01000000
316,0,0.02800000,0.33200000,0.94400000,0.00000000,-0.08000000,0.00000000,0.02413306,0.04967779,0.00565713,19.38000000,-1.27000000,-0.01000000
317,0,0.02000000,0.33000000,0.93900000,-0.15000000,-0.33000000,-0.06000000,0.02393220,0.04923590,0.00557679,19.38000000,-1.27000000,-0.01000000
318,0,0.01900000,0.33000000,0.94300000,-0.20000000,-0.15000000,0.07000000,0.02365213,0.04902585,0.00567481,19.38000000,-1.27000000,-0.01000000
319,0,0.02300000,0.33000000,0.94400000,0.04000000,0.03000000,0.07000000,0.02582951,0.05065888,0.00948522,19.38000000,-1.27000000,-0.01000000
320,0,0.02500000,0.33000000,0.94400000,-0.01000000,0.27000000,0.33000000,0.02581560,0.05103434,0.00994411,19.38000000,-1.27000000,-0.01000000
321,0,0.02100000,0.33100000,0.94300000,-0.05000000,0.03000000,-0.01000000,0.02575007,0.05107366,0.00993100,19.38000000,-1.27000000,-0.01000000
322,0,0.02300000,0.32800000,0.93900000,-0.13000000,0.10000000,0.15000000,0.02558179,0.05120310,0.01012517,19.38000000,-1.27000000,-0.01000000
323,0,0.02200000,0.33500000,0.94400000,0.16000000,-0.07000000,-0.01000000,0.02578982,0.05111209,0.01011217,19.38000000,-1.27000000,-0.01000000
324,0,0.02400000,0.33500000,0.93800000,-0.02000000,-0.03000000,0.30000000,0.02576372,0.05107295,0.01050359,19.38000000,-1.27000000,-0.01000000
325,0,0.01800000,0.33300000,0.94000000,0.01000000,-0.05000000,0.20000000,0.02629853,0.04839890,0.02119978,19.38000000,-1.27000000,-0.01000000
326,0,0.01900000,0.33300000,0.94300000,-0.17000000,0.14000000,0.06000000,0.02602526,0.04862395,0.02129623,19.38000000,-1.27000000,-0.01000000
327,0,0.02000000,0.33000000,0.94400000,-0.07000000,-0.11000000,0.03000000,0.02589581,0.04842053,0.02135171,19.38000000,-1.27000000,-0.01000000
328,0,0.02000000,0.33300000,0.94300000,0.01000000,-0.19000000,-0.01000000,0.02590965,0.04815746,0.02133786,19.38000000,-1.27000000,-0.01000000
329,0,0.02100000,0.33200000,0.94400000,0.33000000,0.14000000,0.23000000,0.02635414,0.04834603,0.02164766,19.38000000,-1.27000000,-0.01000000
330,0,0.02600000,0.33400000,0.93700000,0.22000000,0.23000000,-0.04000000,0.02666185,0.04866772,0.02159171,19.38000000,-1.27000000,-0.01000000
331,0,0.02400000,0.32700000,0.94400000,-0.08000000,-0.26000000,-0.01000000,0.02237297,0.03472889,0.02105560,19.38000000,-1.27000000,-0.01000000
332,0,0.02100000,0.33500000,0.94200000,0.05000000,-0.30000000,0.01000000,0.02243658,0.03434727,0.02106832,19.38000000,-1.27000000,-0.01000000
333,0,0.02200000,0.33200000,0.94600000,-0.19000000,-0.11000000,0.09000000,0.02219457,0.03420716,0.02118296,19.38000000,-1.27000000,-0.01000000
334,0,0.02300000,0.33200000,0.94300000,0.01000000,0.07000000,-0.10000000,0.02220692,0.03429360,0.02105947,19.38000000,-1.28000000,-0.01000000
335,0,0.02300000,0.33100000,0.94200000,-0.08000000,-0.06000000,0.29000000,0.02210477,0.03421699,0.02142975,19.38000000,-1.27000000,-0.01000000
336,0,0.01800000,0.33200000,0.94600000,0.00000000,0.51000000,0.11000000,0.02210477,0.03485553,0.02156748,19.38000000,-1.27000000,-0.01000000
337,0,0.02000000,0.33000000,0.94300000,-0.13000000,0.20000000,-0.18000000,0.01465395,0.04631833,0.01125095,19.38000000,-1.27000000,-0.01000000
338,0,0.02200000,0.33000000,0.94100000,0.08000000,0.16000000,-0.02000000,0.01476954,0.04654952,0.01122205,19.38000000,-1.27000000,-0.01000000
339,0,0.02500000,0.33300000,0.94500000,-0.01000000,0.03000000,0.10000000,0.01475567,0.04659113,0.01136075,19.38000000,-1.27000000,-0.01000000
340,0,0.02300000,0.33600000,0.94400000,0.20000000,-0.01000000,0.15000000,0.01509415,0.04657420,0.01161461,19.38000000,-1.27000000,-0.01000000
341,0,0.02000000,0.33600000,0.94100000,-0.01000000,-0.14000000,-0.06000000,0.01508022,0.04637919,0.01153104,19.38000000,-1.27000000,-0.00000000
342,0,0.02300000,0.33500000,0.94500000,0.04000000,-0.11000000,0.06000000,0.01513617,0.04622534,0.01161496,19.38000000,-1.27000000,-0.01000000
343,0,0.02100000,0.33100000,0.93900000,0.03000000,0.15000000,-0.05000000,0.01517808,0.04643489,0.01154511,19.38000000,-1.27000000,-0.01000000
344,0,0.02100000,0.33300000,0.94200000,0.09000000,-0.05000000,0.14000000,0.01998274,0.04376563,0.01901902,19.38000000,-1.27000000,-0.00000000
345,0,0.02300000,0.33500000,0.94400000,-0.01000000,-0.10000000,0.11000000,0.01996822,0.04362050,0.01917867,19.38000000,-1.27000000,-0.00000000
346,0,0.01800000,0.33600000,0.94600000,0.17000000,-0.15000000,0.12000000,0.02020332,0.04341306,0.01934462,19.38000000,-1.27000000,-0.00000000
347,0,0.02700000,0.32900000,0.94600000,-0.21000000,-0.02000000,-0.11000000,0.01991876,0.04338596,0.01919557,19.38000000,-1.27000000,-0.00000000
348,0,0.02200000,0.33400000,0.94100000,-0.10000000,-0.05000000,-0.16000000,0.01977329,0.04331322,0.01896282,19.38000000,-1.27000000,-0.00000000
349,0,0.02000000,0.33000000,0.94100000,-0.25000000,-0.05000000,0.03000000,0.01939979,0.04323852,0.01900764,19.38000000,-1.27000000,-0.00000000
350,0,0.02300000,0.32900000,0.94400000,0.23000000,0.12000000,0.10000000,0.03183355,0.04972570,0.02441362,19.38000000,-1.27000000,-0.00000000
351,0,0.02600000,0.33400000,0.94200000,-0.19000000,-0.30000000,-0.06000000,0.03157474,0.04931704,0.02433189,19.38000000,-1.27000000,-0.00000000
352,0,0.02000000,0.33000000,0.94300000,0.33000000,-0.17000000,0.01000000,0.03201529,0.04909009,0.02434524,19.38000000,-1.27000000,-0.00000000
353,0,0.02100000,0.33000000,0.94300000,-0.08000000,0.06000000,-0.06000000,0.03190795,0.04917059,0.02426474,19.38000000,-1.27000000,-0.00000000
354,0,0.01900000,0.33200000,0.94300000,0.01000000,0.05000000,-0.15000000,0.03192141,0.04923786,0.02406295,19.38000000,-1.27000000,-0.00000000
355,0,0.02500000,0.33100000,0.94000000,-0.06000000,0.18000000,-0.04000000,0.03183973,0.04948288,0.02400850,19.38000000,-1.27000000,-0.00000000
356,0,0.02100000,0.33400000,0.94000000,-0.07000000,-0.02000000,0.24000000,0.02806437,0.04840421,0.03695260,19.38000000,-1.27000000,-0.00000000
357,0,0.01800000,0.33300000,0.94300000,-0.01000000,-0.21000000,0.01000000,0.02805000,0.04810242,0.03696697,19.38000000,-1.27000000,-0.00000000
358,0,0.02200000,0.33600000,0.94500000,-0.10000000,0.01000000,0.06000000,0.02791929,0.04811550,0.03704540,19.38000000,-1.27000000,-0.00000000
359,0,0.02300000,0.33300000,0.94400000,0.04000000,-0.02000000,0.07000000,0.02797148,0.04808940,0.03713673,19.38000000,-1.27000000,-0.00000000
360,0,0.01900000,0.33400000,0.94600000,-0.04000000,0.02000000,-0.09000000,0.02791892,0.04811568,0.03701846,19.38000000,-1.27000000,-0.00000000
361,0,0.02200000,0.33100000,0.93800000,0.09000000,-0.16000000,-0.02000000,0.02804194,0.04789697,0.03699112,19.38000000,-1.27000000,-0.00000000
362,0,0.01900000,0.32900000,0.93900000,0.06000000,-0.18000000,0.11000000,0.03128257,0.03817508,0.04293228,19.38000000,-1.27000000,-0.00000000
363,0,0.02900000,0.33800000,0.94100000,0.18000000,0.33000000,-0.23000000,0.03154390,0.03865418,0.04259836,19.38000000,-1.27000000,-0.00000000
364,0,0.01900000,0.33200000,0.94400000,0.15000000,-0.06000000,0.13000000,0.03173922,0.03857606,0.04276763,19.38000000,-1.27000000,-0.00000000
365,0,0.01600000,0.33100000,0.94100000,-0.06000000,-0.02000000,-0.12000000,0.03166204,0.03855033,0.04261327,19.38000000,-1.27000000,-0.00000000
366,0,0.02200000,0.33000000,0.94100000,0.23000000,0.04000000,0.03000000,0.03195977,0.03860211,0.04265210,19.38000000,-1.27000000,-0.00000000
367,0,0.02200000,0.33100000,0.94700000,-0.06000000,-0.14000000,0.11000000,0.03187849,0.03841247,0.04280110,19.38000000,-1.27000000,-0.01000000
368,0,0.02400000,0.32800000,0.94300000,0.21000000,0.12000000,-0.01000000,0.04332309,0.04495224,0.04225612,19.38000000,-1.27000000,-0.01000000
369,0,0.01900000,0.33400000,0.94600000,0.11000000,-0.13000000,-0.07000000,0.04346608,0.04478324,0.04216512,19.38000000,-1.27000000,-0.01000000
370,0,0.02200000,0.33100000,0.94300000,0.10000000,-0.06000000,0.11000000,0.04358950,0.04470919,0.04230088,19.38000000,-1.27000000,-0.01000000
371,0,0.02400000,0.33600000,0.94300000,-0.06000000,-0.14000000,0.01000000,0.04351540,0.04453631,0.04231323,19.38000000,-1.27000000,-0.01000000
372,0,0.02300000,0.33100000,0.93900000,-0.01000000,0.15000000,-0.04000000,0.04350291,0.04472380,0.04226323,19.38000000,-1.27000000,-0.01000000
373,0,0.02500000,0.33500000,0.94500000,-0.45000000,-0.06000000,-0.17000000,0.04290376,0.04464391,0.04203689,19.38000000,-1.27000000,-0.01000000
374,0,0.02000000,0.32900000,0.94500000,-0.10000000,-0.11000000,-0.03000000,0.03748490,0.03868317,0.04041123,19.38000000,-1.27000000,-0.01000000
375,0,0.02300000,0.33600000,0.94400000,0.00000000,0.16000000,0.10000000,0.03748490,0.03889093,0.04054109,19.38000000,-1.27000000,-0.01000000
376,0,0.02100000,0.32800000,0.93700000,0.04000000,-0.42000000,-0.28000000,0.03753434,0.03837178,0.04019499,19.38000000,-1.27000000,-0.01000000
377,0,0.02600000,0.33500000,0.94200000,-0.32000000,0.13000000,0.24000000,0.03713697,0.03853322,0.04049302,19.38000000,-1.27000000,-0.01000000
378,0,0.02000000,0.32800000,0.94600000,0.22000000,-0.01000000,-0.06000000,0.03740943,0.03852083,0.04041871,19.38000000,-1.27000000,-0.01000000
379,0,0.02100000,0.33200000,0.94300000,0.00000000,0.04000000,0.15000000,0.03740943,0.03857077,0.04060598,19.38000000,-1.27000000,-0.01000000
380,0,0.02000000,0.32900000,0.93900000,0.21000000,0.11000000,-0.06000000,0.04903747,0.04466165,0.03728368,19.38000000,-1.27000000,-0.01000000
381,0,0.01800000,0.33300000,0.94000000,-0.12000000,0.10000000,0.05000000,0.04886114,0.04480860,0.03735716,19.38000000,-1.27000000,-0.01000000
382,0,0.02400000,0.33200000,0.94700000,0.28000000,0.21000000,0.13000000,0.04941331,0.04522273,0.03761352,19.38000000,-1.27000000,-0.01000000
383,0,0.02100000,0.33200000,0.94000000,-0.08000000,-0.21000000,0.10000000,0.04928040,0.04487383,0.03777966,19.38000000,-1.27000000,-0.01000000
384,0,0.02200000,0.33500000,0.94000000,-0.02000000,-0.21000000,-0.06000000,0.04924729,0.04452619,0.03768034,19.38000000,-1.27000000,-0.01000000
385,0,0.02500000,0.33300000,0.94400000,0.06000000,-0.12000000,0.15000000,0.04938643,0.04424792,0.03802818,19.38000000,-1.27000000,-0.01000000
386,0,0.02200000,0.33200000,0.94800000,-0.11000000,0.04000000,-0.30000000,0.04372230,0.04630760,0.02258056,19.38000000,-1.27000000,-0.01000000
387,0,0.01900000,0.33200000,0.94400000,-0.19000000,0.14000000,0.06000000,0.04345130,0.04650728,0.02266614,19.38000000,-1.27000000,-0.01000000
388,0,0.02500000,0.33000000,0.94400000,0.14000000,-0.18000000,-0.35000000,0.04364498,0.04625827,0.02218195,19.38000000,-1.27000000,-0.01000000
389,0,0.02100000,0.33400000,0.94600000,-0.09000000,0.17000000,-0.04000000,0.04351901,0.04649621,0.02212596,19.38000000,-1.27000000,-0.01000000
390,0,0.01600000,0.33400000,0.94600000,-0.08000000,0.13000000,0.12000000,0.04340533,0.04668095,0.02229649,19.38000000,-1.27000000,-0.01000000
391,0,0.02100000,0.32700000,0.94400000,-0.08000000,-0.03000000,-0.02000000,0.04328641,0.04663635,0.02226676,19.38000000,-1.27000000,-0.01000000
392,0,0.01700000,0.33400000,0.93700000,-0.09000000,0.26000000,-0.15000000,0.03847130,0.06054667,0.01424158,19.38000000,-1.27000000,-0.01000000
393,0,0.02200000,0.33600000,0.94300000,0.03000000,-0.10000000,0.18000000,0.03851443,0.06040292,0.01450033,19.38000000,-1.27000000,-0.01000000
394,0,0.02100000,0.33100000,0.94800000,0.16000000,0.10000000,0.06000000,0.03873688,0.06054195,0.01458375,19.38000000,-1.27000000,-0.01000000
395,0,0.01800000,0.33400000,0.94000000,0.04000000,-0.22000000,0.02000000,0.03879202,0.06023871,0.01461132,19.38000000,-1.27000000,-0.01000000
396,0,0.02200000,0.33500000,0.94500000,-0.22000000,0.09000000,-0.22000000,0.03849496,0.06036023,0.01431426,19.38000000,-1.27000000,-0.01000000
397,0,0.02000000,0.33000000,0.94600000,-0.12000000,0.12000000,0.24000000,0.03832798,0.06052721,0.01464822,19.38000000,-1.27000000,-0.01000000
398,0,0.02300000,0.33400000,0.94600000,0.34000000,-0.07000000,-0.22000000,0.05684945,0.05671397,0.00266374,19.39000000,-1.27000000,-0.01000000
399,0,0.02000000,0.32700000,0.94400000,0.08000000,0.21000000,-0.04000000,0.05695591,0.05699342,0.00261051,19.38000000,-1.27000000,-0.01000000
400,0,0.02700000,0.33100000,0.94300000,0.03000000,0.06000000,-0.05000000,0.05699442,0.05707044,0.00254632,19.38000000,-1.27000000,-0.01000000
401,0,0.02300000,0.33600000,0.94200000,-0.04000000,-0.18000000,0.07000000,0.05693930,0.05682237,0.00264279,19.38000000,-1.27000000,-0.01000000
402,0,0.02400000,0.33300000,0.94100000,0.11000000,0.16000000,0.18000000,0.05708722,0.05703754,0.00288485,19.38000000,-1.27000000,-0.01000000
403,0,0.02300000,0.33700000,0.94600000,0.04000000,0.06000000,-0.01000000,0.05714003,0.05711675,0.00287165,19.38000000,-1.27000000,-0.01000000
404,0,0.01900000,0.33500000,0.94300000,-0.06000000,0.08000000,-0.01000000,0.05390375,0.06143179,0.00233227,19.38000000,-1.27000000,-0.01000000
405,0,0.01500000,0.32900000,0.94600000,0.02000000,0.28000000,-0.00000000,0.05393046,0.06180579,0.00233227,19.39000000,-1.27000000,-0.00000000
406,0,0.02600000,0.33500000,0.94500000,0.32000000,0.22000000,0.23000000,0.05434103,0.06208806,0.00262737,19.39000000,-1.27000000,-0.00000000
407,0,0.02700000,0.33500000,0.94400000,-0.22000000,-0.00000000,-0.38000000,0.05405656,0.06208806,0.00213601,19.39000000,-1.27000000,-0.00000000
408,0,0.02200000,0.33400000,0.94200000,-0.06000000,0.06000000,0.10000000,0.05397975,0.06216487,0.00226403,19.39000000,-1.27000000,-0.00000000
409,0,0.02500000,0.33300000,0.94100000,0.16000000,-0.01000000,0.07000000,0.05418473,0.06215206,0.00235371,19.39000000,-1.27000000,-0.00000000
410,0,0.02200000,0.33600000,0.93900000,-0.12000000,-0.04000000,-0.06000000,0.04769472,0.05998872,-0.00089130,19.39000000,-1.27000000,-0.00000000
411,0,0.02300000,0.33600000,0.94200000,-0.06000000,-0.01000000,-0.18000000,0.04760855,0.05997436,-0.00114980,19.39000000,-1.27000000,-0.00000000
412,0,0.02100000,0.32600000,0.94000000,-0.10000000,0.04000000,-0.05000000,0.04747064,0.06002953,-0.00121875,19.39000000,-1.27000000,-0.00000000
413,0,0.02200000,0.33200000,0.94100000,-0.05000000,-0.11000000,-0.02000000,0.04740226,0.05987908,-0.00124611,19.39000000,-1.27000000,-0.00000000
414,0,0.02100000,0.33100000,0.94600000,0.07000000,0.02000000,0.04000000,0.04749701,0.05990615,-0.00119196,19.39000000,-1.27000000,-0.00000000
415,0,0.01900000,0.33500000,0.94000000,0.03000000,0.14000000,-0.10000000,0.04753915,0.06010280,-0.00133242,19.39000000,-1.27000000,-0.01000000
416,0,0.01900000,0.33200000,0.94200000,0.09000000,-0.17000000,0.11000000,0.05252444,0.05068614,0.00476071,19.39000000,-1.27000000,-0.01000000
417,0,0.02800000,0.33800000,0.94700000,0.03000000,-0.01000000,0.14000000,0.05257670,0.05066872,0.00500459,19.39000000,-1.27000000,-0.01000000
418,0,0.01900000,0.33200000,0.94100000,0.03000000,-0.04000000,0.01000000,0.05262038,0.05061049,0.00501915,19.39000000,-1.27000000,-0.01000000
419,0,0.02300000,0.33700000,0.94300000,0.09000000,0.05000000,0.12000000,0.05274152,0.05067778,0.00518066,19.39000000,-1.27000000,-0.01000000
420,0,0.02000000,0.33500000,0.94100000,0.11000000,-0.11000000,0.15000000,0.05290872,0.05051058,0.00540867,19.39000000,-1.27000000,-0.00000000
421,0,0.02200000,0.33300000,0.94000000,-0.01000000,0.01000000,-0.13000000,0.05289442,0.05052488,0.00522284,19.39000000,-1.27000000,-0.01000000
422,0,0.02600000,0.33000000,0.94200000,0.08000000,0.28000000,0.18000000,0.05707898,0.06517083,0.01463810,19.39000000,-1.27000000,-0.01000000
423,0,0.02100000,0.33200000,0.94000000,0.05000000,0.02000000,0.06000000,0.05714980,0.06519916,0.01472308,19.39000000,-1.27000000,-0.01000000
424,0,0.02500000,0.33100000,0.94200000,0.03000000,0.05000000,0.15000000,0.05718932,0.06526503,0.01492069,19.39000000,-1.27000000,-0.01000000
425,0,0.02500000,0.33200000,0.94000000,0.32000000,0.24000000,0.12000000,0.05760195,0.06557450,0.01507542,19.39000000,-1.27000000,-0.01000000
426,0,0.02500000,0.33200000,0.93800000,-0.10000000,-0.00000000,0.35000000,0.05747296,0.06557450,0.01552690,19.39000000,-1.27000000,-0.01000000
427,0,0.02000000,0.33400000,0.93800000,-0.10000000,-0.15000000,-0.12000000,0.05733390,0.06536592,0.01536004,19.39000000,-1.27000000,-0.01000000
428,0,0.02400000,0.33300000,0.94400000,-0.01000000,0.02000000,-0.13000000,0.05679741,0.06643889,0.00838569,19.39000000,-1.27000000,-0.01000000
429,0,0.02100000,0.33500000,0.94700000,0.17000000,-0.10000000,-0.17000000,0.05697463,0.06633465,0.00820847,19.39000000,-1.27000000,-0.01000000
430,0,0.01900000,0.33500000,0.94500000,-0.50000000,-0.16000000,0.06000000,0.05647986,0.06617632,0.00826784,19.40000000,-1.27000000,-0.01000000
431,0,0.02100000,0.33300000,0.93900000,0.09000000,-0.01000000,-0.15000000,0.05657248,0.06616603,0.00811348,19.40000000,-1.27000000,-0.01000000
432,0,0.02200000,0.33100000,0.94300000,-0.02000000,0.27000000,0.21000000,0.05655172,0.06644627,0.00833144,19.40000000,-1.27000000,-0.01000000
433,0,0.02500000,0.32800000,0.94000000,-0.09000000,0.17000000,-0.04000000,0.05645940,0.06662066,0.00829041,19.40000000,-1.27000000,-0.01000000
434,0,0.02300000,0.33500000,0.93800000,-0.06000000,0.07000000,-0.08000000,0.05307298,0.07057149,0.00377517,19.40000000,-1.26000000,-0.01000000
435,0,0.02300000,0.32900000,0.94000000,0.05000000,0.11000000,-0.01000000,0.05312820,0.07069298,0.00376413,19.40000000,-1.26000000,-0.01000000
436,0,0.01900000,0.33400000,0.93900000,-0.09000000,-0.00000000,-0.02000000,0.05303837,0.07069298,0.00374417,19.40000000,-1.26000000,-0.01000000
437,0,0.01800000,0.33600000,0.94800000,0.17000000,0.15000000,0.18000000,0.05320659,0.07084141,0.00392228,19.40000000,-1.26000000,-0.01000000
438,0,0.01800000,0.33500000,0.94500000,0.04000000,-0.16000000,0.06000000,0.05324604,0.07068362,0.00398146,19.40000000,-1.26000000,-0.01000000
439,0,0.02700000,0.33100000,0.94000000,0.21000000,-0.26000000,-0.15000000,0.05345289,0.07042751,0.00383371,19.40000000,-1.26000000,-0.00000000
440,0,0.02300000,0.33100000,0.94400000,-0.15000000,0.08000000,0.01000000,0.04513180,0.07486543,0.00438844,19.40000000,-1.26000000,-0.00000000
441,0,0.02200000,0.33500000,0.94400000,0.29000000,0.03000000,0.06000000,0.04543924,0.07489723,0.00445205,19.40000000,-1.26000000,-0.00000000
442,0,0.02200000,0.32700000,0.94000000,-0.09000000,-0.13000000,0.05000000,0.04534943,0.07476750,0.00450195,19.40000000,-1.26000000,-0.00000000
443,0,0.02100000,0.33000000,0.94300000,0.08000000,-0.25000000,0.21000000,0.04542857,0.07452018,0.00470970,19.40000000,-1.26000000,-0.00000000
444,0,0.02200000,0.33100000,0.94300000,0.01000000,0.17000000,-0.12000000,0.04543851,0.07468917,0.00459041,19.40000000,-1.26000000,-0.00000000
445,0,0.02500000,0.33400000,0.93900000,-0.05000000,0.03000000,-0.01000000,0.04538894,0.07471891,0.00458050,19.40000000,-1.26000000,-0.00000000
446,0,0.01900000,0.33000000,0.94200000,0.11000000,0.00000000,-0.06000000,0.05150964,0.07471891,0.00124193,19.40000000,-1.26000000,-0.00000000
447,0,0.02500000,0.33900000,0.94200000,0.14000000,0.17000000,0.04000000,0.05165782,0.07489885,0.00128427,19.40000000,-1.26000000,-0.00000000
448,0,0.02500000,0.33000000,0.94100000,-0.13000000,0.19000000,0.19000000,0.05152800,0.07508858,0.00147401,19.40000000,-1.26000000,-0.00000000
449,0,0.02500000,0.33200000,0.94200000,-0.21000000,0.03000000,-0.11000000,0.05131995,0.07511831,0.00136502,19.40000000,-1.27000000,-0.00000000
450,0,0.02100000,0.33000000,0.94100000,-0.03000000,-0.12000000,-0.00000000,0.05129019,0.07499927,0.00136502,19.40000000,-1.26000000,-0.00000000
451,0,0.02100000,0.33400000,0.94100000,-0.00000000,0.01000000,0.07000000,0.05129019,0.07500985,0.00143907,19.40000000,-1.26000000,-0.00000000
452,0,0.02300000,0.32300000,0.94000000,-0.17000000,-0.15000000,0.06000000,0.04170557,0.06655283,0.00482187,19.40000000,-1.26000000,-0.00000000
453,0,0.01800000,0.33400000,0.94100000,-0.10000000,-0.05000000,0.01000000,0.04160025,0.06650017,0.00483241,19.40000000,-1.26000000,-0.00000000
454,0,0.02500000,0.33600000,0.94200000,-0.06000000,0.13000000,0.08000000,0.04154063,0.06662934,0.00491189,19.40000000,-1.26000000,-0.00000000
455,0,0.02400000,0.33500000,0.93900000,-0.08000000,0.11000000,0.07000000,0.04146145,0.06673821,0.00498118,19.41000000,-1.26000000,-0.00000000
456,0,0.02200000,0.33400000,0.94500000,-0.10000000,-0.11000000,-0.23000000,0.04136228,0.06662913,0.00475309,19.41000000,-1.26000000,-0.00000000
457,0,0.02500000,0.32800000,0.94100000,0.13000000,0.04000000,-0.16000000,0.04149210,0.06666907,0.00459331,19.41000000,-1.26000000,-0.01000000
458,0,0.01900000,0.33600000,0.94000000,0.14000000,-0.11000000,-0.08000000,0.04968542,0.06023146,-0.00008859,19.41000000,-1.26000000,-0.01000000
459,0,0.02000000,0.33000000,0.94300000,0.11000000,0.15000000,0.12000000,0.04980099,0.06038905,0.00003748,19.41000000,-1.26000000,-0.01000000
460,0,0.02400000,0.33500000,0.94100000,0.06000000,-0.11000000,-0.08000000,0.04986152,0.06027807,-0.00004323,19.41000000,-1.27000000,-0.01000000
461,0,0.02200000,0.33400000,0.94600000,-0.06000000,-0.03000000,0.26000000,0.04980196,0.06024829,0.00021486,19.41000000,-1.27000000,-0.01000000
462,0,0.02000000,0.33200000,0.94000000,0.08000000,0.03000000,-0.25000000,0.04988767,0.06028043,-0.00005297,19.41000000,-1.27000000,-0.01000000
463,0,0.02900000,0.33700000,0.94100000,-0.11000000,0.09000000,-0.39000000,0.04977074,0.06037610,-0.00046753,19.41000000,-1.27000000,-0.01000000
464,0,0.02100000,0.33500000,0.93900000,-0.16000000,0.04000000,0.31000000,0.04961070,0.06041611,-0.00015745,19.41000000,-1.27000000,-0.01000000
465,0,0.02200000,0.32500000,0.94100000,0.03000000,0.04000000,-0.17000000,0.05127103,0.06262989,-0.00956600,19.41000000,-1.27000000,-0.01000000
466,0,0.02500000,0.33600000,0.94100000,0.29000000,-0.00000000,0.25000000,0.05157708,0.06262989,-0.00930216,19.41000000,-1.27000000,-0.01000000
467,0,0.02600000,0.32900000,0.94200000,-0.08000000,0.08000000,-0.06000000,0.05149713,0.06270983,-0.00936212,19.41000000,-1.27000000,-0.01000000
468,0,0.02400000,0.33300000,0.94000000,0.27000000,-0.10000000,0.18000000,0.05176521,0.06261055,-0.00918341,19.41000000,-1.27000000,-0.01000000
469,0,0.02200000,0.33000000,0.94400000,-0.23000000,0.22000000,0.18000000,0.05153707,0.06282877,-0.00900486,19.41000000,-1.27000000,-0.00000000
470,0,0.02300000,0.33700000,0.94700000,-0.15000000,0.37000000,-0.02000000,0.05138649,0.06320019,-0.00902494,19.41000000,-1.27000000,-0.00000000
471,0,0.02200000,0.32900000,0.94000000,-0.06000000,0.30000000,-0.10000000,0.04799556,0.08015486,-0.01467649,19.41000000,-1.27000000,-0.00000000
472,0,0.02100000,0.33400000,0.94500000,0.02000000,0.16000000,0.15000000,0.04801642,0.08032177,-0.01452001,19.41000000,-1.27000000,-0.00000000
473,0,0.02300000,0.33200000,0.94000000,-0.00000000,0.17000000,-0.18000000,0.04801642,0.08049100,-0.01469920,19.41000000,-1.27000000,-0.00000000
474,0,0.02500000,0.33000000,0.94400000,0.15000000,-0.09000000,0.00000000,0.04816503,0.08040184,-0.01469920,19.41000000,-1.27000000,-0.00000000
475,0,0.02400000,0.33100000,0.94300000,-0.17000000,0.14000000,-0.08000000,0.04799507,0.08054181,-0.01477919,19.41000000,-1.27000000,-0.00000000
476,0,0.02400000,0.33400000,0.94300000,0.22000000,-0.04000000,0.24000000,0.04821450,0.08050191,-0.01453981,19.41000000,-1.27000000,-0.00000000
477,0,0.02500000,0.33500000,0.94000000,0.11000000,0.15000000,0.10000000,0.05432405,0.08883312,-0.00898567,19.41000000,-1.27000000,-0.00000000
478,0,0.02000000,0.33200000,0.94600000,0.07000000,-0.09000000,0.05000000,0.05439742,0.08873878,-0.00893326,19.41000000,-1.27000000,-0.00000000
479,0,0.02000000,0.32800000,0.94200000,0.01000000,0.06000000,0.01000000,0.05440742,0.08879876,-0.00892327,19.41000000,-1.27000000,-0.00000000
480,0,0.02400000,0.33200000,0.94600000,-0.05000000,0.03000000,0.15000000,0.05435769,0.08882859,-0.00877409,19.41000000,-1.27000000,-0.00000000
481,0,0.02600000,0.33300000,0.94200000,-0.20000000,0.14000000,0.12000000,0.05415783,0.08896850,-0.00865417,19.41000000,-1.27000000,-0.00000000
482,0,0.02400000,0.33600000,0.94500000,-0.01000000,-0.03000000,0.12000000,0.05414784,0.08893854,-0.00853434,19.41000000,-1.27000000,0.00000000
483,0,0.02400000,0.33600000,0.94100000,-0.02000000,0.28000000,-0.00000000,0.05303588,0.10450595,-0.00853434,19.41000000,-1.27000000,0.00000000
484,0,0.02000000,0.33300000,0.94300000,0.06000000,-0.15000000,-0.04000000,0.05309886,0.10434850,-0.00857632,19.41000000,-1.27000000,0.00000000
485,0,0.02600000,0.32900000,0.94100000,0.04000000,0.03000000,0.13000000,0.05313867,0.10437836,-0.00844694,19.41000000,-1.27000000,0.00000000
486,0,0.02400000,0.33300000,0.94600000,0.07000000,-0.03000000,-0.06000000,0.05320804,0.10434863,-0.00850639,19.41000000,-1.27000000,0.00000000
487,0,0.02100000,0.32900000,0.94100000,0.15000000,-0.02000000,0.08000000,0.05335758,0.10432869,-0.00842664,19.41000000,-1.27000000,0.00000000
488,0,0.02300000,0.33000000,0.94800000,-0.07000000,-0.09000000,0.04000000,0.05328779,0.10423897,-0.00838676,19.41000000,-1.27000000,0.00000000
489,0,0.02200000,0.33300000,0.94600000,-0.10000000,0.09000000,-0.01000000,0.04763860,0.10932324,-0.00895168,19.41000000,-1.27000000,0.00000000
490,0,0.02500000,0.33400000,0.94200000,0.09000000,-0.16000000,0.12000000,0.04773339,0.10915473,-0.00882530,19.41000000,-1.27000000,0.00000000
491,0,0.02300000,0.33500000,0.94600000,0.09000000,0.23000000,0.10000000,0.04782289,0.10938348,-0.00872584,19.42000000,-1.27000000,0.00000000
492,0,0.01700000,0.33400000,0.94200000,-0.27000000,0.01000000,0.37000000,0.04755211,0.10939351,-0.00835477,19.42000000,-1.27000000,0.00000000
493,0,0.02500000,0.33500000,0.94400000,-0.07000000,-0.01000000,0.01000000,0.04748164,0.10938344,-0.00834471,19.41000000,-1.27000000,0.00000000
494,0,0.02200000,0.33500000,0.94200000,0.13000000,-0.02000000,0.19000000,0.04761416,0.10936305,-0.00815103,19.41000000,-1.27000000,0.00000000
495,0,0.02200000,0.33500000,0.93900000,-0.08000000,0.06000000,-0.13000000,0.04317861,0.11268971,-0.01535880,19.41000000,-1.27000000,0.00000000
496,0,0.02100000,0.32500000,0.94200000,-0.32000000,-0.03000000,-0.38000000,0.04284327,0.11265828,-0.01575702,19.41000000,-1.27000000,0.00000000
497,0,0.02100000,0.33100000,0.94200000,0.13000000,0.04000000,-0.03000000,0.04297569,0.11269902,-0.01578758,19.41000000,-1.27000000,0.00000000
498,0,0.02200000,0.33300000,0.94500000,0.13000000,0.29000000,0.02000000,0.04311068,0.11300016,-0.01576681,19.41000000,-1.27000000,0.00000000
499,0,0.02500000,0.33200000,0.94300000,-0.02000000,0.07000000,-0.01000000,0.04309051,0.11307078,-0.01577690,19.41000000,-1.27000000,0.00000000
500,0,0.02100000,0.33500000,0.94300000,0.08000000,-0.10000000,-0.03000000,0.04317077,0.11297044,-0.01580700,19.41000000,-1.27000000,0.00000000
501,0,0.02200000,0.33300000,0.94200000,-0.03000000,0.19000000,-0.00000000,0.04150669,0.12350963,-0.01580700,19.41000000,-1.27000000,0.00000000
502,0,0.02100000,0.33200000,0.94000000,0.23000000,0.13000000,-0.10000000,0.04174739,0.12364567,-0.01591165,19.41000000,-1.27000000,0.00000000
503,0,0.02000000,0.33600000,0.93600000,0.08000000,0.09000000,-0.01000000,0.04182707,0.12373531,-0.01592161,19.41000000,-1.27000000,0.00000000
504,0,0.01900000,0.33100000,0.94100000,-0.03000000,-0.04000000,0.16000000,0.04179711,0.12369536,-0.01576180,19.42000000,-1.27000000,0.00000000
505,0,0.01900000,0.32900000,0.94500000,0.11000000,0.04000000,0.08000000,0.04190656,0.12373516,-0.01568219,19.42000000,-1.27000000,0.00000000
506,0,0.02400000,0.32900000,0.93800000,0.08000000,-0.12000000,0.05000000,0.04198622,0.12361567,-0.01563241,19.42000000,-1.27000000,0.00000000
507,0,0.02500000,0.33300000,0.94100000,-0.09000000,-0.04000000,0.05000000,0.03690117,0.12135565,-0.01280738,19.41000000,-1.27000000,0.00000000
508,0,0.02200000,0.33100000,0.94200000,0.20000000,0.09000000,0.12000000,0.03711243,0.12145072,-0.01268063,19.41000000,-1.27000000,-0.00000000
509,0,0.01700000,0.32900000,0.94300000,0.24000000,0.16000000,-0.18000000,0.03735621,0.12161324,-0.01286346,19.41000000,-1.26000000,0.00000000
510,0,0.02200000,0.33200000,0.94600000,0.17000000,0.03000000,0.12000000,0.03752553,0.12164312,-0.01274395,19.41000000,-1.26000000,-0.00000000
511,0,0.02000000,0.33400000,0.93600000,-0.08000000,0.05000000,0.06000000,0.03744585,0.12169292,-0.01268419,19.41000000,-1.26000000,0.00000000
512,0,0.01900000,0.32900000,0.93700000,0.20000000,0.08000000,-0.12000000,0.03764505,0.12177259,-0.01280370,19.41000000,-1.26000000,0.00000000
513,0,0.02300000,0.33300000,0.94200000,0.00000000,0.26000000,-0.05000000,0.03764505,0.13620269,-0.01557872,19.41000000,-1.26000000,0.00000000
514,0,0.02600000,0.33300000,0.93900000,0.06000000,0.01000000,-0.16000000,0.03770821,0.13621322,-0.01574716,19.41000000,-1.26000000,0.00000000
515,0,0.02400000,0.33200000,0.94200000,0.16000000,0.04000000,0.06000000,0.03786982,0.13625362,-0.01568656,19.42000000,-1.26000000,0.00000000
516,0,0.02000000,0.33600000,0.94400000,-0.03000000,0.14000000,0.12000000,0.03784018,0.13639192,-0.01556801,19.42000000,-1.26000000,0.00000000
517,0,0.02300000,0.33100000,0.94300000,0.21000000,0.29000000,0.10000000,0.03804848,0.13667958,-0.01546882,19.42000000,-1.26000000,0.00000000
518,0,0.02000000,0.33400000,0.94100000,0.05000000,-0.26000000,0.23000000,0.03809829,0.13642056,-0.01523969,19.41000000,-1.26000000,0.00000000
519,0,0.02700000,0.33200000,0.94300000,0.00000000,-0.12000000,0.02000000,0.03809829,0.12974418,-0.01412696,19.41000000,-1.26000000,0.00000000
520,0,0.02100000,0.33200000,0.94500000,-0.13000000,-0.05000000,0.16000000,0.03794393,0.12968481,-0.01393697,19.41000000,-1.26000000,0.00000000
521,0,0.02100000,0.32800000,0.94500000,0.04000000,-0.10000000,-0.07000000,0.03798433,0.12958381,-0.01400767,19.41000000,-1.26000000,0.00000000
522,0,0.02000000,0.33400000,0.94700000,0.12000000,0.21000000,0.30000000,0.03810382,0.12979291,-0.01370895,19.41000000,-1.26000000,0.00000000
523,0,0.02800000,0.33100000,0.94100000,-0.22000000,-0.21000000,0.02000000,0.03788602,0.12958501,-0.01368915,19.41000000,-1.26000000,0.01000000
524,0,0.02400000,0.33100000,0.94300000,0.04000000,0.22000000,-0.12000000,0.03792578,0.12980370,-0.01380844,19.41000000,-1.26000000,0.00000000
525,0,0.02100000,0.33900000,0.94600000,0.07000000,-0.10000000,0.24000000,0.04186414,0.12417747,-0.00030547,19.41000000,-1.26000000,0.01000000
526,0,0.01500000,0.33700000,0.94400000,0.09000000,0.01000000,-0.02000000,0.04195960,0.12418807,-0.00032669,19.41000000,-1.26000000,0.00000000
527,0,0.02500000,0.33300000,0.94300000,0.03000000,0.05000000,-0.00000000,0.04198997,0.12423870,-0.00032669,19.41000000,-1.26000000,0.00000000
528,0,0.02300000,0.33700000,0.94000000,-0.11000000,0.18000000,0.01000000,0.04187973,0.12441909,-0.00031666,19.41000000,-1.26000000,0.00000000
529,0,0.02400000,0.33200000,0.94000000,-0.28000000,0.13000000,0.04000000,0.04160192,0.12454807,-0.00027698,19.41000000,-1.26000000,0.00000000
530,0,0.01900000,0.33500000,0.93700000,0.21000000,-0.16000000,-0.03000000,0.04180978,0.12438970,-0.00030667,19.42000000,-1.26000000,0.00000000
531,0,0.02100000,0.33000000,0.94300000,-0.13000000,0.06000000,-0.00000000,0.03459535,0.12771944,-0.00030667,19.41000000,-1.26000000,0.00000000
532,0,0.02800000,0.33600000,0.94400000,0.11000000,0.04000000,-0.03000000,0.03471314,0.12776227,-0.00033880,19.41000000,-1.26000000,0.00000000
533,0,0.02400000,0.33200000,0.94300000,0.02000000,-0.01000000,0.07000000,0.03473336,0.12775216,-0.00026803,19.42000000,-1.26000000,0.00000000
534,0,0.02400000,0.33300000,0.94400000,0.02000000,0.17000000,0.01000000,0.03475319,0.12792071,-0.00025811,19.42000000,-1.26000000,0.00000000
535,0,0.02100000,0.33400000,0.94000000,0.16000000,-0.20000000,0.02000000,0.03491175,0.12772252,-0.00023829,19.42000000,-1.26000000,0.00000000
536,0,0.02200000,0.32700000,0.94000000,0.07000000,0.09000000,0.15000000,0.03498128,0.12781192,-0.00008929,19.42000000,-1.26000000,0.00000000
537,0,0.02100000,0.32800000,0.94400000,0.15000000,-0.09000000,0.10000000,0.04332973,0.12280285,0.00547634,19.42000000,-1.26000000,0.00000000
538,0,0.02000000,0.33000000,0.94300000,-0.17000000,0.06000000,-0.04000000,0.04315020,0.12286621,0.00543410,19.42000000,-1.26000000,0.00000000
539,0,0.01800000,0.33400000,0.94300000,0.08000000,-0.13000000,0.01000000,0.04322991,0.12273668,0.00544406,19.42000000,-1.26000000,0.00000000
540,0,0.02000000,0.32600000,0.93900000,0.06000000,-0.07000000,0.17000000,0.04328937,0.12266731,0.00561253,19.42000000,-1.26000000,0.00000000
541,0,0.02300000,0.33200000,0.94200000,-0.08000000,-0.20000000,0.06000000,0.04320994,0.12246873,0.00567210,19.42000000,-1.26000000,0.01000000
542,0,0.02100000,0.33200000,0.94300000,-0.11000000,0.32000000,-0.14000000,0.04309996,0.12278867,0.00553213,19.42000000,-1.26000000,0.01000000
543,0,0.01900000,0.33000000,0.94100000,-0.01000000,0.07000000,-0.18000000,0.04253609,0.12673581,-0.00461767,19.42000000,-1.26000000,0.00000000
544,0,0.02000000,0.33200000,0.94100000,-0.17000000,0.12000000,-0.06000000,0.04235664,0.12686248,-0.00468100,19.42000000,-1.26000000,0.00000000
545,0,0.01800000,0.33300000,0.94100000,0.02000000,0.13000000,0.24000000,0.04237669,0.12699285,-0.00444031,19.42000000,-1.26000000,0.01000000
546,0,0.02600000,0.32800000,0.94500000,0.04000000,-0.14000000,-0.08000000,0.04241648,0.12685362,-0.00451987,19.42000000,-1.26000000,0.01000000
547,0,0.02100000,0.33600000,0.94300000,-0.08000000,0.09000000,-0.34000000,0.04233707,0.12694296,-0.00485737,19.42000000,-1.26000000,0.01000000
548,0,0.02400000,0.33000000,0.94300000,-0.09000000,0.09000000,-0.17000000,0.04224698,0.12703304,-0.00502754,19.42000000,-1.26000000,0.00000000
549,0,0.02100000,0.33100000,0.94500000,-0.13000000,-0.11000000,-0.04000000,0.03503007,0.12092643,-0.00724813,19.42000000,-1.26000000,0.00000000
550,0,0.02200000,0.33200000,0.93800000,0.01000000,-0.10000000,-0.00000000,0.03504055,0.12082161,-0.00724813,19.42000000,-1.26000000,0.00000000
551,0,0.02700000,0.33000000,0.94700000,-0.07000000,0.07000000,0.23000000,0.03497087,0.12089130,-0.00701916,19.42000000,-1.26000000,0.00000000
552,0,0.02000000,0.33100000,0.94000000,-0.06000000,0.16000000,0.08000000,0.03491136,0.12104997,-0.00693983,19.42000000,-1.26000000,0.00000000
553,0,0.02800000,0.33300000,0.94600000,-0.24000000,0.01000000,0.01000000,0.03467336,0.12105988,-0.00692991,19.42000000,-1.26000000,0.00000000
554,0,0.02100000,0.33300000,0.94400000,-0.20000000,0.19000000,-0.12000000,0.03447407,0.12124921,-0.00704948,19.42000000,-1.26000000,0.00000000
555,0,0.02800000,0.33300000,0.93800000,0.03000000,-0.01000000,-0.11000000,0.03614637,0.12069178,-0.01318125,19.42000000,-1.26000000,0.00000000
556,0,0.02100000,0.33400000,0.94400000,0.02000000,-0.07000000,-0.12000000,0.03616736,0.12061832,-0.01330717,19.42000000,-1.26000000,0.00000000
557,0,0.02600000,0.32800000,0.94700000,0.25000000,-0.13000000,-0.13000000,0.03641701,0.12048850,-0.01343699,19.42000000,-1.26000000,0.00000000
558,0,0.02500000,0.33300000,0.94100000,-0.02000000,-0.07000000,-0.36000000,0.03639695,0.12041830,-0.01379803,19.42000000,-1.26000000,0.00000000
559,0,0.02200000,0.33200000,0.94500000,0.02000000,0.08000000,0.07000000,0.03641701,0.12049855,-0.01372781,19.42000000,-1.26000000,0.00000000
560,0,0.02200000,0.33100000,0.94300000,-0.02000000,-0.04000000,-0.08000000,0.03639708,0.12045868,-0.01380755,19.42000000,-1.26000000,0.00000000
561,0,0.02100000,0.33000000,0.94200000,-0.14000000,-0.01000000,0.06000000,0.02851554,0.11989571,-0.01042975,19.41000000,-1.26000000,0.00000000
562,0,0.01900000,0.33200000,0.94900000,0.12000000,0.24000000,0.05000000,0.02864178,0.12014820,-0.01037715,19.42000000,-1.26000000,0.00000000
563,0,0.02100000,0.33400000,0.94300000,-0.00000000,-0.10000000,-0.04000000,0.02864178,0.12004819,-0.01041715,19.41000000,-1.26000000,0.00000000
564,0,0.02600000,0.33400000,0.94300000,0.18000000,0.04000000,0.09000000,0.02882020,0.12008784,-0.01032794,19.42000000,-1.26000000,0.00000000
565,0,0.02000000,0.33500000,0.94300000,0.06000000,0.02000000,-0.07000000,0.02888024,0.12010786,-0.01039799,19.42000000,-1.26000000,0.00000000
566,0,0.02500000,0.33500000,0.93900000,-0.14000000,0.02000000,0.22000000,0.02874074,0.12012778,-0.01017877,19.42000000,-1.26000000,0.00000000
567,0,0.02000000,0.33000000,0.94600000,0.01000000,-0.01000000,-0.03000000,0.02929639,0.11957213,-0.01184573,19.41000000,-1.26000000,0.00000000
568,0,0.02600000,0.33500000,0.94300000,-0.02000000,-0.01000000,0.08000000,0.02927540,0.11956163,-0.01176174,19.41000000,-1.26000000,0.00000000
569,0,0.02100000,0.33400000,0.94500000,0.02000000,0.06000000,0.12000000,0.02929545,0.11962179,-0.01164142,19.41000000,-1.26000000,0.00000000
570,0,0.02400000,0.33300000,0.94300000,-0.00000000,-0.09000000,-0.16000000,0.02929545,0.11953233,-0.01180047,19.41000000,-1.26000000,0.00000000
571,0,0.01900000,0.33500000,0.94600000,0.27000000,0.03000000,-0.17000000,0.02956726,0.11956253,-0.01197161,19.41000000,-1.26000000,0.00000000
572,0,0.02100000,0.32700000,0.94600000,0.17000000,0.15000000,0.04000000,0.02973649,0.11971185,-0.01193179,19.41000000,-1.26000000,0.00000000
573,0,0.02000000,0.33400000,0.93900000,-0.09000000,0.05000000,0.01000000,0.02472650,0.12249518,-0.01137513,19.41000000,-1.26000000,0.00000000
574,0,0.02200000,0.33200000,0.94300000,-0.03000000,-0.25000000,0.08000000,0.02469487,0.12223158,-0.01129078,19.41000000,-1.26000000,0.00000000
575,0,0.01800000,0.33200000,0.94400000,-0.14000000,0.03000000,-0.03000000,0.02455427,0.12226171,-0.01132091,19.41000000,-1.26000000,0.00000000
576,0,0.02600000,0.33300000,0.94200000,0.04000000,-0.00000000,0.13000000,0.02459453,0.12226171,-0.01119007,19.41000000,-1.26000000,0.00000000
577,0,0.02100000,0.33200000,0.94500000,-0.15000000,-0.04000000,0.02000000,0.02444567,0.12222202,-0.01117022,19.41000000,-1.26000000,0.00000000
578,0,0.02300000,0.33400000,0.94600000,0.20000000,-0.16000000,0.12000000,0.02464472,0.12206277,-0.01105079,19.41000000,-1.26000000,0.00000000
579,0,0.02300000,0.32900000,0.94100000,-0.04000000,-0.01000000,-0.05000000,0.02239315,0.12149988,-0.01386525,19.41000000,-1.26000000,0.00000000
580,0,0.02000000,0.32800000,0.94400000,0.04000000,-0.01000000,0.08000000,0.02243508,0.12148940,-0.01378138,19.41000000,-1.26000000,0.00000000
581,0,0.02900000,0.33700000,0.94400000,-0.14000000,0.09000000,-0.06000000,0.02229548,0.12157914,-0.01384121,19.41000000,-1.26000000,0.00000000
582,0,0.02800000,0.33200000,0.94500000,-0.06000000,-0.01000000,-0.18000000,0.02223536,0.12156912,-0.01402156,19.41000000,-1.26000000,0.00000000
583,0,0.02500000,0.33300000,0.94200000,0.23000000,0.07000000,0.16000000,0.02246356,0.12163857,-0.01386281,19.41000000,-1.26000000,0.00000000
584,0,0.02300000,0.33700000,0.94500000,-0.13000000,-0.26000000,0.24000000,0.02233399,0.12137943,-0.01362360,19.41000000,-1.26000000,0.00000000
585,0,0.02400000,0.33300000,0.94200000,-0.11000000,0.02000000,0.01000000,0.01589124,0.12255084,-0.01303790,19.41000000,-1.26000000,0.00000000
586,0,0.01600000,0.33200000,0.94600000,0.14000000,0.08000000,0.12000000,0.01603775,0.12263457,-0.01291232,19.41000000,-1.26000000,0.00000000
587,0,0.02300000,0.33700000,0.94100000,0.02000000,-0.09000000,-0.04000000,0.01605746,0.12254587,-0.01295174,19.41000000,-1.26000000,0.00000000
588,0,0.02900000,0.33200000,0.94400000,-0.15000000,-0.10000000,-0.18000000,0.01591028,0.12244775,-0.01312835,19.41000000,-1.26000000,0.00000000
589,0,0.01800000,0.33800000,0.94200000,0.02000000,0.08000000,0.00000000,0.01593099,0.12253058,-0.01312835,19.41000000,-1.26000000,0.00000000
590,0,0.02000000,0.33300000,0.94200000,0.15000000,-0.17000000,-0.18000000,0.01608324,0.12235802,-0.01331106,19.41000000,-1.26000000,0.00000000
591,0,0.02300000,0.33000000,0.94300000,0.12000000,-0.06000000,-0.33000000,0.01620270,0.12229829,-0.01363957,19.41000000,-1.26000000,0.00000000
592,0,0.01600000,0.33100000,0.94500000,0.05000000,0.05000000,0.09000000,0.01898293,0.12507852,-0.00863516,19.41000000,-1.26000000,0.00000000
593,0,0.02500000,0.33300000,0.94500000,0.10000000,-0.05000000,-0.12000000,0.01908821,0.12502588,-0.00876149,19.41000000,-1.26000000,0.00000000
594,0,0.02700000,0.32400000,0.94600000,0.12000000,-0.04000000,0.20000000,0.01920824,0.12498587,-0.00856144,19.41000000,-1.26000000,0.00000000
595,0,0.02500000,0.33500000,0.95000000,-0.21000000,-0.06000000,-0.15000000,0.01899713,0.12492555,-0.00871223,19.41000000,-1.26000000,0.00000000
596,0,0.02100000,0.33600000,0.94400000,0.01000000,0.18000000,-0.05000000,0.01900705,0.12510419,-0.00876185,19.41000000,-1.26000000,0.00000000
597,0,0.02400000,0.33000000,0.94600000,-0.07000000,-0.07000000,0.09000000,0.01893727,0.12503440,-0.00867212,19.41000000,-1.26000000,0.00000000
598,0,0.02300000,0.32800000,0.94500000,0.02000000,0.18000000,-0.18000000,0.02006421,0.13517690,-0.01881463,19.41000000,-1.26000000,0.00000000
599,0,0.02500000,0.33400000,0.94400000,-0.10000000,0.06000000,-0.06000000,0.01996032,0.13523924,-0.01887696,19.41000000,-1.26000000,0.00000000
600,0,0.02300000,0.33500000,0.94000000,-0.13000000,0.06000000,0.11000000,0.01982992,0.13529942,-0.01876662,19.41000000,-1.26000000,0.00000000
601,0,0.02500000,0.33000000,0.94400000,-0.27000000,0.21000000,-0.01000000,0.01956384,0.13550638,-0.01877647,19.41000000,-1.26000000,0.00000000
602,0,0.01900000,0.33500000,0.94400000,-0.20000000,0.24000000,-0.04000000,0.01936674,0.13574289,-0.01881589,19.41000000,-1.26000000,0.00000000
603,0,0.02400000,0.33500000,0.94500000,-0.26000000,-0.09000000,-0.06000000,0.01910716,0.13565304,-0.01887579,19.41000000,-1.26000000,0.00000000
604,0,0.02100000,0.33400000,0.94300000,0.07000000,0.02000000,-0.03000000,0.02300356,0.13676630,-0.02054567,19.41000000,-1.26000000,-0.00000000
605,0,0.02700000,0.33400000,0.94400000,-0.21000000,0.09000000,0.07000000,0.02276771,0.13686737,-0.02046706,19.41000000,-1.26000000,-0.00000000
606,0,0.02300000,0.33200000,0.94300000,0.14000000,0.05000000,0.00000000,0.02291169,0.13691879,-0.02046706,19.41000000,-1.26000000,0.00000000
607,0,0.01600000,0.33400000,0.93900000,0.05000000,-0.24000000,0.02000000,0.02296158,0.13667930,-0.02044710,19.41000000,-1.26000000,-0.00000000
608,0,0.02300000,0.33200000,0.94400000,0.17000000,0.19000000,0.01000000,0.02313289,0.13687075,-0.02043703,19.41000000,-1.25000000,0.00000000
609,0,0.02200000,0.33200000,0.94100000,-0.21000000,0.16000000,0.18000000,0.02291197,0.13703907,-0.02024766,19.41000000,-1.25000000,-0.00000000
610,0,0.01900000,0.33100000,0.94200000,-0.02000000,-0.00000000,0.10000000,0.02180182,0.13703907,-0.01469691,19.41000000,-1.25000000,0.00000000
611,0,0.02300000,0.32900000,0.94200000,0.01000000,-0.08000000,-0.02000000,0.02181285,0.13695081,-0.01471898,19.41000000,-1.25000000,0.00000000
612,0,0.02500000,0.32900000,0.94300000,-0.01000000,0.24000000,0.26000000,0.02180264,0.13719586,-0.01445351,19.41000000,-1.25000000,0.00000000
613,0,0.02100000,0.33400000,0.94200000,-0.15000000,0.08000000,-0.04000000,0.02164974,0.13727740,-0.01449429,19.41000000,-1.25000000,0.00000000
614,0,0.01900000,0.32800000,0.94400000,-0.16000000,0.11000000,-0.03000000,0.02149030,0.13738701,-0.01452418,19.41000000,-1.25000000,0.00000000
615,0,0.01900000,0.32700000,0.94500000,0.12000000,0.15000000,0.11000000,0.02160899,0.13753537,-0.01441539,19.41000000,-1.25000000,0.00000000
616,0,0.02000000,0.33000000,0.94400000,0.05000000,0.07000000,-0.07000000,0.02441733,0.14146705,-0.01834706,19.41000000,-1.25000000,0.00000000
617,0,0.02300000,0.33300000,0.94100000,-0.04000000,0.20000000,0.09000000,0.02437540,0.14167668,-0.01825272,19.41000000,-1.25000000,0.00000000
618,0,0.01900000,0.32900000,0.94000000,-0.01000000,-0.04000000,-0.07000000,0.02436541,0.14163672,-0.01832266,19.41000000,-1.25000000,0.00000000
619,0,0.02400000,0.33100000,0.94000000,0.09000000,0.28000000,0.04000000,0.02445533,0.14191646,-0.01828269,19.41000000,-1.25000000,0.00000000
620,0,0.02000000,0.33100000,0.94700000,-0.05000000,-0.24000000,-0.04000000,0.02440601,0.14167972,-0.01832215,19.41000000,-1.25000000,0.00000000
621,0,0.02400000,0.32700000,0.94200000,0.07000000,-0.09000000,0.15000000,0.02447679,0.14158870,-0.01817047,19.41000000,-1.25000000,0.00000000
622,0,0.02700000,0.33600000,0.94500000,0.05000000,0.10000000,-0.01000000,0.02725203,0.14713917,-0.01872551,19.41000000,-1.25000000,0.00000000
623,0,0.02300000,0.33000000,0.94300000,-0.02000000,0.34000000,-0.07000000,0.02723101,0.14749645,-0.01879907,19.41000000,-1.25000000,0.00000000
624,0,0.02500000,0.33300000,0.94200000,0.06000000,-0.06000000,0.10000000,0.02729047,0.14743699,-0.01869997,19.41000000,-1.25000000,0.00000000
625,0,0.01800000,0.33100000,0.94800000,0.11000000,0.14000000,0.22000000,0.02739895,0.14757506,-0.01848301,19.41000000,-1.25000000,0.00000000
626,0,0.01900000,0.32900000,0.94300000,-0.11000000,-0.04000000,0.12000000,0.02729057,0.14753565,-0.01836478,19.41000000,-1.25000000,0.01000000
627,0,0.02000000,0.33500000,0.94200000,-0.04000000,-0.07000000,-0.32000000,0.02725059,0.14746568,-0.01868463,19.41000000,-1.25000000,0.01000000
628,0,0.02200000,0.32800000,0.94400000,0.09000000,-0.10000000,-0.13000000,0.03226908,0.14188958,-0.02593356,19.41000000,-1.25000000,0.00000000
629,0,0.02700000,0.32900000,0.94300000,-0.07000000,0.13000000,0.19000000,0.03219497,0.14202721,-0.02573241,19.41000000,-1.25000000,0.00000000
630,0,0.02400000,0.32900000,0.94500000,-0.02000000,-0.08000000,-0.20000000,0.03217506,0.14194757,-0.02593151,19.41000000,-1.25000000,0.00000000
631,0,0.02500000,0.32700000,0.94200000,-0.16000000,-0.10000000,0.03000000,0.03201685,0.14184869,-0.02590185,19.41000000,-1.25000000,0.00000000
632,0,0.02000000,0.32800000,0.94000000,0.05000000,0.16000000,0.00000000,0.03206628,0.14200686,-0.02590185,19.41000000,-1.25000000,0.00000000
633,0,0.02200000,0.33300000,0.94200000,-0.14000000,0.10000000,0.01000000,0.03192674,0.14210653,-0.02589188,19.41000000,-1.25000000,0.00000000
634,0,0.02100000,0.33200000,0.94400000,-0.18000000,0.19000000,0.15000000,0.02178604,0.15281060,-0.01744130,19.40000000,-1.25000000,0.00000000
635,0,0.02500000,0.33400000,0.94200000,0.23000000,-0.03000000,-0.05000000,0.02202658,0.15277923,-0.01749359,19.40000000,-1.25000000,0.00000000
636,0,0.02000000,0.33700000,0.94500000,0.06000000,-0.16000000,-0.05000000,0.02208643,0.15261961,-0.01754347,19.40000000,-1.25000000,0.00000000
637,0,0.02200000,0.33100000,0.94300000,-0.22000000,0.19000000,0.06000000,0.02186622,0.15280979,-0.01748341,19.40000000,-1.25000000,0.00000000
638,0,0.01700000,0.32700000,0.94400000,-0.03000000,-0.05000000,0.19000000,0.02183632,0.15275997,-0.01729408,19.40000000,-1.25000000,0.00000000
639,0,0.02200000,0.33500000,0.94200000,-0.07000000,-0.04000000,-0.18000000,0.02176661,0.15272013,-0.01747336,19.40000000,-1.25000000,0.00000000
640,0,0.02100000,0.33400000,0.94500000,0.13000000,0.32000000,0.07000000,0.02898196,0.17048101,-0.01358817,19.40000000,-1.25000000,0.00000000
641,0,0.02200000,0.33600000,0.94400000,0.08000000,-0.17000000,-0.12000000,0.02906832,0.17029751,-0.01371770,19.40000000,-1.25000000,0.00000000
642,0,0.02500000,0.33300000,0.94000000,-0.01000000,0.04000000,-0.10000000,0.02905794,0.17033903,-0.01382149,19.40000000,-1.25000000,0.00000000
643,0,0.02500000,0.33200000,0.94100000,-0.02000000,0.08000000,-0.05000000,0.02903788,0.17041926,-0.01387164,19.40000000,-1.25000000,0.00000000
644,0,0.02600000,0.33100000,0.93600000,0.04000000,-0.06000000,0.17000000,0.02907798,0.17035912,-0.01370122,19.40000000,-1.25000000,0.00000000
645,0,0.02100000,0.33400000,0.94400000,-0.19000000,0.02000000,-0.06000000,0.02888870,0.17037904,-0.01376100,19.40000000,-1.25000000,0.00000000
646,0,0.02800000,0.33500000,0.94600000,0.05000000,-0.21000000,-0.11000000,0.03171450,0.15851067,-0.01997776,19.40000000,-1.25000000,0.00000000
647,0,0.01700000,0.33400000,0.94000000,0.18000000,-0.16000000,-0.28000000,0.03191115,0.15833587,-0.02028367,19.40000000,-1.25000000,0.00000000
648,0,0.02300000,0.33200000,0.94100000,0.10000000,0.04000000,-0.12000000,0.03201142,0.15837597,-0.02040399,19.40000000,-1.25000000,0.00000000
649,0,0.02200000,0.33200000,0.94500000,0.05000000,-0.01000000,-0.16000000,0.03206147,0.15836596,-0.02056415,19.40000000,-1.25000000,0.00000000
650,0,0.02000000,0.33700000,0.94000000,-0.01000000,-0.00000000,0.06000000,0.03205154,0.15836596,-0.02050459,19.40000000,-1.25000000,0.00000000
651,0,0.02300000,0.33600000,0.94100000,0.01000000,-0.09000000,0.01000000,0.03206147,0.15827663,-0.02049466,19.41000000,-1.25000000,0.00000000
652,0,0.01900000,0.32800000,0.94600000,-0.06000000,0.02000000,0.02000000,0.02873388,0.15938582,-0.01938547,19.41000000,-1.25000000,0.00000000
653,0,0.02600000,0.33200000,0.94300000,-0.08000000,0.09000000,0.11000000,0.02864855,0.15948181,-0.01926815,19.41000000,-1.25000000,0.00000000
654,0,0.01600000,0.33000000,0.94300000,-0.06000000,0.08000000,0.01000000,0.02858870,0.15956162,-0.01925817,19.41000000,-1.25000000,0.00000000
655,0,0.02700000,0.33100000,0.94500000,-0.01000000,0.13000000,-0.07000000,0.02857863,0.15969253,-0.01932866,19.40000000,-1.25000000,0.00000000
656,0,0.02200000,0.33500000,0.94500000,0.05000000,-0.22000000,-0.12000000,0.02862827,0.15947409,-0.01944780,19.41000000,-1.25000000,0.00000000
657,0,0.01800000,0.33400000,0.94200000,-0.12000000,-0.28000000,-0.19000000,0.02850835,0.15919428,-0.01963767,19.40000000,-1.26000000,0.00000000
658,0,0.02200000,0.33100000,0.94000000,-0.07000000,-0.10000000,0.16000000,0.02462641,0.15364866,-0.01076467,19.40000000,-1.25000000,0.00000000
659,0,0.02300000,0.33400000,0.94200000,-0.10000000,0.10000000,-0.07000000,0.02452157,0.15375350,-0.01083806,19.40000000,-1.26000000,0.00000000
660,0,0.02100000,0.33500000,0.94400000,-0.02000000,-0.16000000,0.05000000,0.02450164,0.15359407,-0.01078824,19.40000000,-1.26000000,0.00000000
661,0,0.02300000,0.33300000,0.94000000,0.19000000,0.04000000,0.00000000,0.02469097,0.15363393,-0.01078824,19.40000000,-1.26000000,0.00000000
662,0,0.02000000,0.32800000,0.94600000,-0.13000000,-0.17000000,0.06000000,0.02456162,0.15346477,-0.01072853,19.40000000,-1.26000000,0.00000000
663,0,0.02100000,0.32900000,0.94700000,-0.23000000,0.08000000,-0.01000000,0.02433331,0.15354418,-0.01073846,19.40000000,-1.26000000,0.00000000
664,0,0.02400000,0.33300000,0.94400000,0.31000000,0.13000000,-0.06000000,0.04163909,0.16080145,-0.01408797,19.40000000,-1.25000000,0.00000000
665,0,0.02300000,0.33400000,0.94900000,-0.03000000,-0.16000000,0.05000000,0.04160740,0.16063244,-0.01403515,19.40000000,-1.25000000,0.00000000
666,0,0.02000000,0.33600000,0.94100000,0.05000000,0.06000000,0.12000000,0.04165768,0.16069277,-0.01391449,19.40000000,-1.25000000,0.00000000
667,0,0.02000000,0.33500000,0.94100000,-0.13000000,-0.13000000,0.03000000,0.04152677,0.16056187,-0.01388428,19.40000000,-1.25000000,0.00000000
668,0,0.02400000,0.33300000,0.94400000,0.19000000,0.03000000,0.04000000,0.04171633,0.16059180,-0.01384438,19.40000000,-1.25000000,0.00000000
669,0,0.01900000,0.33400000,0.94400000,0.01000000,0.29000000,-0.00000000,0.04172630,0.16088104,-0.01384438,19.40000000,-1.25000000,0.00000000
670,0,0.01800000,0.33100000,0.94500000,0.01000000,-0.23000000,0.12000000,0.04228821,0.14795715,-0.00710148,19.40000000,-1.25000000,0.00000000
671,0,0.02500000,0.33200000,0.94300000,-0.13000000,0.02000000,-0.40000000,0.04214494,0.14797919,-0.00754231,19.40000000,-1.25000000,0.00000000
672,0,0.02300000,0.33300000,0.94300000,-0.02000000,-0.22000000,-0.04000000,0.04212340,0.14774225,-0.00758539,19.40000000,-1.25000000,0.00000000
673,0,0.02100000,0.33200000,0.93900000,0.31000000,-0.22000000,-0.09000000,0.04245373,0.14750782,-0.00768129,19.40000000,-1.25000000,0.00000000
674,0,0.01900000,0.33200000,0.94600000,-0.03000000,0.19000000,-0.03000000,0.04242169,0.14771078,-0.00771334,19.40000000,-1.25000000,0.00000000
675,0,0.02500000,0.33000000,0.94700000,0.01000000,-0.20000000,-0.01000000,0.04243238,0.14749680,-0.00772404,19.40000000,-1.25000000,0.00000000
676,0,0.02100000,0.32700000,0.94700000,0.06000000,-0.12000000,-0.30000000,0.04574651,0.14086854,-0.02429468,19.40000000,-1.25000000,-0.00000000
677,0,0.01900000,0.33200000,0.94300000,0.10000000,-0.14000000,0.06000000,0.04585570,0.14071569,-0.02422917,19.40000000,-1.25000000,-0.00000000
678,0,0.02000000,0.33400000,0.94300000,-0.03000000,0.14000000,0.03000000,0.04582323,0.14086721,-0.02419670,19.40000000,-1.25000000,-0.00000000
679,0,0.02300000,0.33300000,0.94600000,0.03000000,0.23000000,-0.38000000,0.04585522,0.14111246,-0.02460190,19.40000000,-1.25000000,-0.00000000
680,0,0.02300000,0.33000000,0.94700000,-0.13000000,0.17000000,0.01000000,0.04571799,0.14129191,-0.02459135,19.40000000,-1.25000000,-0.00000000
681,0,0.02100000,0.33500000,0.94700000,-0.02000000,0.06000000,0.12000000,0.04569634,0.14135684,-0.02446147,19.40000000,-1.25000000,-0.00000000
682,0,0.01900000,0.33000000,0.94200000,0.26000000,0.08000000,-0.08000000,0.06029046,0.14584734,-0.02895197,19.40000000,-1.25000000,-0.00000000
683,0,0.02400000,0.33400000,0.94600000,-0.25000000,-0.14000000,-0.18000000,0.06001703,0.14569422,-0.02914884,19.40000000,-1.25000000,-0.00000000
684,0,0.02300000,0.33200000,0.94600000,0.07000000,-0.21000000,-0.13000000,0.06008785,0.14548176,-0.02928036,19.40000000,-1.25000000,-0.00000000
685,0,0.02800000,0.32800000,0.94400000,0.00000000,0.00000000,-0.16000000,0.06008785,0.14548176,-0.02951651,19.40000000,-1.25000000,-0.00000000
686,0,0.02300000,0.33400000,0.94700000,0.18000000,-0.09000000,0.10000000,0.06026854,0.14539141,-0.02941613,19.40000000,-1.25000000,-0.00000000
687,0,0.02200000,0.33000000,0.94100000,-0.15000000,0.20000000,-0.06000000,0.06011822,0.14559185,-0.02947626,19.40000000,-1.25000000,-0.00000000
688,0,0.02000000,0.32800000,0.94300000,0.18000000,0.35000000,0.12000000,0.07001460,0.16483481,-0.02287867,19.40000000,-1.25000000,-0.00000000
689,0,0.01800000,0.33100000,0.94500000,-0.29000000,0.07000000,0.02000000,0.06970703,0.16490906,-0.02285746,19.40000000,-1.25000000,-0.00000000
690,0,0.01900000,0.33400000,0.94300000,0.25000000,0.02000000,0.12000000,0.06995841,0.16492917,-0.02273679,19.40000000,-1.25000000,-0.00000000
691,0,0.02600000,0.33300000,0.94000000,-0.18000000,0.09000000,0.07000000,0.06972596,0.16504539,-0.02264640,19.40000000,-1.25000000,-0.00000000
692,0,0.01800000,0.33200000,0.94600000,-0.09000000,0.30000000,-0.01000000,0.06962847,0.16537036,-0.02265723,19.40000000,-1.25000000,-0.00000000
693,0,0.02200000,0.33100000,0.93800000,0.04000000,-0.06000000,-0.05000000,0.06967241,0.16530445,-0.02271216,19.40000000,-1.25000000,-0.00000000
694,0,0.02200000,0.33300000,0.94300000,0.14000000,-0.03000000,0.00000000,0.07737560,0.16365377,-0.02271216,19.40000000,-1.25000000,-0.00000000
695,0,0.01900000,0.33600000,0.93800000,-0.03000000,-0.07000000,-0.09000000,0.07734210,0.16357559,-0.02281267,19.40000000,-1.25000000,-0.00000000
696,0,0.02400000,0.33600000,0.94500000,-0.04000000,0.24000000,0.17000000,0.07730171,0.16381794,-0.02264101,19.40000000,-1.25000000,-0.00000000
697,0,0.02000000,0.32700000,0.94300000,-0.08000000,-0.10000000,-0.01000000,0.07722243,0.16371884,-0.02265092,19.40000000,-1.26000000,-0.00000000
698,0,0.01800000,0.33500000,0.94100000,-0.18000000,-0.07000000,0.06000000,0.07704440,0.16364961,-0.02259157,19.39000000,-1.26000000,-0.00000000
699,0,0.02300000,0.33200000,0.94800000,0.18000000,0.14000000,-0.17000000,0.07722307,0.16378858,-0.02276032,19.40000000,-1.26000000,-0.00000000
700,0,0.01900000,0.33300000,0.94400000,0.16000000,0.15000000,0.20000000,0.08625564,0.17225661,-0.01146961,19.40000000,-1.25000000,-0.00000000
701,0,0.02100000,0.33000000,0.94300000,-0.04000000,0.11000000,0.13000000,0.08621377,0.17237176,-0.01133353,19.40000000,-1.25000000,-0.00000000
702,0,0.01900000,0.33100000,0.94500000,0.05000000,-0.14000000,-0.27000000,0.08626382,0.17223162,-0.01160379,19.40000000,-1.25000000,-0.00000000
703,0,0.02600000,0.33300000,0.94600000,-0.12000000,-0.21000000,-0.16000000,0.08614439,0.17202261,-0.01176304,19.40000000,-1.25000000,-0.00000000
704,0,0.02300000,0.33000000,0.93900000,0.02000000,-0.27000000,-0.06000000,0.08616423,0.17175480,-0.01182255,19.39000000,-1.25000000,-0.00000000
705,0,0.02200000,0.33200000,0.94500000,0.01000000,-0.02000000,-0.15000000,0.08617423,0.17173479,-0.01197259,19.40000000,-1.25000000,-0.00000000
706,0,0.02200000,0.33200000,0.94000000,-0.04000000,0.13000000,-0.05000000,0.08383285,0.17934427,-0.01489932,19.40000000,-1.25000000,-0.00000000
707,0,0.02400000,0.32800000,0.94200000,0.15000000,-0.05000000,-0.08000000,0.08399258,0.17929103,-0.01498451,19.40000000,-1.25000000,-0.00000000
708,0,0.02100000,0.33600000,0.94100000,-0.00000000,-0.13000000,-0.19000000,0.08399258,0.17916075,-0.01517492,19.40000000,-1.25000000,-0.00000000
709,0,0.01900000,0.33000000,0.94100000,0.17000000,0.17000000,-0.06000000,0.08416166,0.17932982,-0.01523459,19.40000000,-1.25000000,-0.00000000
710,0,0.02000000,0.33400000,0.94300000,0.05000000,-0.10000000,0.05000000,0.08421129,0.17923056,-0.01518496,19.40000000,-1.25000000,-0.00000000
711,0,0.01800000,0.33400000,0.94000000,0.03000000,0.07000000,-0.05000000,0.08424117,0.17930029,-0.01523477,19.40000000,-1.25000000,-0.00000000
712,0,0.02200000,0.33500000,0.93900000,-0.12000000,-0.13000000,0.00000000,0.08412046,0.17916951,-0.01523477,19.40000000,-1.25000000,-0.00000000
713,0,0.02100000,0.33300000,0.94000000,0.10000000,0.01000000,-0.04000000,0.08966716,0.17972418,-0.01745345,19.40000000,-1.25000000,-0.00000000
714,0,0.02300000,0.33900000,0.94200000,-0.26000000,0.21000000,0.22000000,0.08939122,0.17994706,-0.01721996,19.40000000,-1.25000000,-0.00000000
715,0,0.02300000,0.33500000,0.94100000,0.12000000,-0.19000000,-0.06000000,0.08951279,0.17975456,-0.01728075,19.40000000,-1.26000000,-0.00000000
716,0,0.02400000,0.33400000,0.94000000,-0.05000000,0.24000000,-0.01000000,0.08946323,0.17999245,-0.01729066,19.40000000,-1.25000000,-0.00000000
717,0,0.02800000,0.33600000,0.93800000,0.00000000,-0.01000000,-0.17000000,0.08946323,0.17998255,-0.01745901,19.40000000,-1.26000000,-0.00000000
718,0,0.02300000,0.33200000,0.94200000,-0.28000000,-0.10000000,0.07000000,0.08918316,0.17988252,-0.01738899,19.40000000,-1.26000000,-0.00000000
719,0,0.02600000,0.33700000,0.94300000,0.07000000,0.18000000,-0.42000000,0.09313958,0.19005618,-0.04112753,19.40000000,-1.26000000,-0.01000000
720,0,0.02300000,0.33300000,0.94200000,-0.05000000,0.10000000,0.15000000,0.09308708,0.19016119,-0.04097001,19.40000000,-1.26000000,-0.01000000
721,0,0.02200000,0.33000000,0.94100000,-0.25000000,-0.05000000,0.02000000,0.09283754,0.19011128,-0.04095005,19.40000000,-1.26000000,-0.01000000
722,0,0.02700000,0.33400000,0.94700000,0.10000000,-0.14000000,-0.24000000,0.09293695,0.18997211,-0.04118863,19.40000000,-1.26000000,-0.01000000
723,0,0.02100000,0.33700000,0.93900000,0.03000000,0.01000000,0.19000000,0.09296887,0.18998275,-0.04098648,19.40000000,-1.26000000,-0.01000000
724,0,0.02600000,0.33400000,0.94200000,-0.05000000,-0.12000000,0.23000000,0.09291887,0.18986275,-0.04075647,19.40000000,-1.26000000,-0.01000000
725,0,0.02300000,0.33800000,0.94600000,0.06000000,-0.25000000,0.07000000,0.09624657,0.17599731,-0.03687415,19.40000000,-1.26000000,-0.01000000
726,0,0.02700000,0.33100000,0.94200000,-0.12000000,-0.03000000,-0.05000000,0.09611925,0.17596548,-0.03692720,19.40000000,-1.26000000,-0.01000000
727,0,0.02800000,0.33600000,0.94200000,0.07000000,0.01000000,0.04000000,0.09618985,0.17597556,-0.03688686,19.40000000,-1.26000000,-0.01000000
728,0,0.02000000,0.33500000,0.94500000,0.01000000,-0.10000000,0.05000000,0.09619980,0.17587609,-0.03683712,19.40000000,-1.26000000,-0.00000000
729,0,0.02800000,0.33900000,0.93900000,0.00000000,0.16000000,-0.09000000,0.09619980,0.17603785,-0.03692811,19.40000000,-1.26000000,-0.00000000
730,0,0.02200000,0.33400000,0.94200000,0.12000000,0.25000000,-0.24000000,0.09632014,0.17628857,-0.03716880,19.40000000,-1.26000000,-0.01000000
731,0,0.02300000,0.33100000,0.93800000,0.04000000,-0.14000000,0.06000000,0.09853865,0.16852379,-0.03384104,19.40000000,-1.26000000,-0.01000000
732,0,0.02500000,0.33300000,0.94200000,0.05000000,0.17000000,-0.11000000,0.09859123,0.16870255,-0.03395671,19.40000000,-1.26000000,-0.01000000
733,0,0.02000000,0.32800000,0.94000000,-0.01000000,0.08000000,0.23000000,0.09858111,0.16878353,-0.03372391,19.40000000,-1.26000000,-0.00000000
734,0,0.02700000,0.33200000,0.94100000,-0.06000000,-0.15000000,0.01000000,0.09852106,0.16863341,-0.03371390,19.40000000,-1.26000000,-0.01000000
735,0,0.02400000,0.33300000,0.94200000,0.09000000,0.12000000,-0.12000000,0.09861126,0.16875367,-0.03383416,19.40000000,-1.26000000,-0.01000000
736,0,0.02500000,0.33400000,0.94400000,-0.04000000,0.04000000,-0.02000000,0.09857124,0.16879369,-0.03385417,19.40000000,-1.26000000,-0.01000000
737,0,0.02100000,0.33300000,0.94700000,0.06000000,0.22000000,0.09000000,0.10197164,0.18126184,-0.02875356,19.40000000,-1.26000000,-0.01000000
738,0,0.02000000,0.33300000,0.94100000,0.12000000,-0.04000000,0.11000000,0.10210274,0.18121814,-0.02863339,19.40000000,-1.26000000,-0.00000000
739,0,0.02600000,0.33100000,0.94200000,-0.13000000,0.21000000,0.10000000,0.10197162,0.18142995,-0.02853252,19.40000000,-1.26000000,-0.00000000
740,0,0.02700000,0.32800000,0.94500000,-0.24000000,-0.14000000,-0.16000000,0.10173024,0.18128914,-0.02869344,19.40000000,-1.26000000,-0.01000000
741,0,0.01900000,0.32900000,0.94200000,0.12000000,-0.09000000,-0.05000000,0.10184962,0.18119961,-0.02874318,19.40000000,-1.27000000,-0.01000000
742,0,0.02500000,0.33200000,0.94500000,0.02000000,-0.07000000,0.02000000,0.10186988,0.18112871,-0.02872293,19.40000000,-1.27000000,-0.01000000
743,0,0.01900000,0.32900000,0.94600000,-0.15000000,-0.00000000,0.03000000,0.09358005,0.18112871,-0.02706496,19.40000000,-1.26000000,-0.01000000
744,0,0.02700000,0.32900000,0.94300000,0.11000000,-0.16000000,0.04000000,0.09369545,0.18096085,-0.02702299,19.40000000,-1.26000000,-0.01000000
745,0,0.02600000,0.33700000,0.94200000,-0.15000000,0.19000000,-0.13000000,0.09354602,0.18115013,-0.02715250,19.40000000,-1.26000000,-0.01000000
746,0,0.02100000,0.33100000,0.94300000,0.22000000,-0.08000000,0.01000000,0.09376613,0.18107009,-0.02714250,19.40000000,-1.26000000,-0.01000000
747,0,0.02300000,0.33200000,0.94400000,0.23000000,0.11000000,0.13000000,0.09399543,0.18117975,-0.02701290,19.40000000,-1.26000000,-0.01000000
748,0,0.02000000,0.33300000,0.94300000,-0.06000000,0.12000000,-0.21000000,0.09393540,0.18129981,-0.02722300,19.40000000,-1.26000000,-0.01000000
749,0,0.01900000,0.32900000,0.94400000,0.07000000,-0.24000000,0.09000000,0.09782459,0.16796542,-0.02222260,19.41000000,-1.26000000,-0.01000000
750,0,0.01800000,0.33000000,0.94300000,0.09000000,0.12000000,-0.16000000,0.09791915,0.16809148,-0.02239070,19.41000000,-1.26000000,-0.01000000
751,0,0.02600000,0.33400000,0.94400000,0.15000000,-0.04000000,0.00000000,0.09806890,0.16805155,-0.02239070,19.41000000,-1.26000000,-0.00000000
752,0,0.02800000,0.33400000,0.94400000,-0.09000000,0.10000000,-0.19000000,0.09797862,0.16815186,-0.02258129,19.41000000,-1.26000000,-0.00000000
753,0,0.02200000,0.33400000,0.94200000,0.10000000,0.04000000,-0.08000000,0.09807793,0.16819159,-0.02266074,19.41000000,-1.26000000,-0.00000000
754,0,0.02600000,0.33700000,0.94300000,0.06000000,-0.02000000,0.10000000,0.09813822,0.16817149,-0.02256026,19.41000000,-1.26000000,-0.01000000
755,0,0.02600000,0.33900000,0.94300000,-0.15000000,0.01000000,-0.04000000,0.08966771,0.16873619,-0.02481906,19.41000000,-1.26000000,-0.01000000
756,0,0.02300000,0.32800000,0.94800000,-0.10000000,-0.08000000,-0.11000000,0.08956256,0.16865207,-0.02493473,19.41000000,-1.26000000,-0.01000000
757,0,0.02500000,0.33100000,0.94300000,-0.18000000,0.15000000,-0.03000000,0.08938011,0.16880411,-0.02496514,19.41000000,-1.26000000,-0.01000000
758,0,0.02100000,0.33300000,0.94600000,-0.16000000,0.04000000,0.11000000,0.08922121,0.16884384,-0.02485590,19.41000000,-1.27000000,-0.01000000
759,0,0.02100000,0.33600000,0.94200000,-0.04000000,0.22000000,-0.02000000,0.08918153,0.16906206,-0.02487573,19.41000000,-1.26000000,-0.01000000
760,0,0.02300000,0.33000000,0.94300000,-0.06000000,-0.33000000,-0.23000000,0.08912190,0.16873410,-0.02510431,19.41000000,-1.27000000,-0.01000000
761,0,0.01900000,0.33300000,0.94400000,0.23000000,-0.22000000,0.06000000,0.10188754,0.15652349,-0.02177415,19.41000000,-1.27000000,-0.00000000
762,0,0.02200000,0.33100000,0.94500000,-0.18000000,-0.15000000,-0.13000000,0.10169878,0.15636619,-0.02191048,19.41000000,-1.27000000,-0.01000000
763,0,0.02300000,0.33600000,0.94300000,0.04000000,-0.10000000,0.21000000,0.10173908,0.15626545,-0.02169892,19.41000000,-1.27000000,-0.01000000
764,0,0.02700000,0.33000000,0.93800000,-0.05000000,-0.04000000,0.13000000,0.10168934,0.15622566,-0.02156960,19.41000000,-1.27000000,-0.01000000
765,0,0.01900000,0.33200000,0.94300000,-0.06000000,-0.03000000,-0.06000000,0.10162966,0.15619582,-0.02162927,19.41000000,-1.27000000,-0.01000000
766,0,0.02100000,0.33600000,0.94200000,0.02000000,-0.07000000,-0.08000000,0.10164959,0.15612607,-0.02170898,19.41000000,-1.27000000,-0.01000000
767,0,0.01800000,0.33200000,0.94200000,0.12000000,0.15000000,0.05000000,0.10831482,0.16445760,-0.01893181,19.41000000,-1.27000000,-0.01000000
768,0,0.02500000,0.33300000,0.94400000,-0.06000000,-0.17000000,-0.04000000,0.10825181,0.16427908,-0.01897381,19.41000000,-1.27000000,-0.01000000
769,0,0.01700000,0.33300000,0.94100000,0.44000000,0.18000000,-0.35000000,0.10869455,0.16446020,-0.01932599,19.41000000,-1.26000000,-0.01000000
770,0,0.01900000,0.33600000,0.94600000,0.12000000,-0.08000000,0.23000000,0.10881367,0.16438079,-0.01909769,19.41000000,-1.27000000,-0.01000000
771,0,0.02000000,0.33800000,0.93800000,-0.05000000,-0.16000000,0.00000000,0.10876413,0.16422227,-0.01909769,19.41000000,-1.27000000,-0.01000000
772,0,0.02500000,0.34000000,0.94000000,-0.07000000,0.18000000,-0.01000000,0.10869423,0.16440202,-0.01910767,19.41000000,-1.26000000,-0.01000000
773,0,0.02100000,0.33500000,0.94100000,-0.04000000,0.05000000,-0.09000000,0.10643407,0.16722721,-0.02419302,19.41000000,-1.27000000,-0.01000000
774,0,0.02300000,0.32900000,0.94300000,-0.09000000,-0.01000000,-0.01000000,0.10633873,0.16721662,-0.02420361,19.41000000,-1.27000000,-0.01000000
775,0,0.02100000,0.33400000,0.94200000,0.26000000,-0.16000000,0.24000000,0.10659762,0.16705730,-0.02396464,19.41000000,-1.27000000,-0.01000000
776,0,0.01800000,0.33200000,0.94000000,0.11000000,-0.05000000,-0.01000000,0.10670644,0.16700784,-0.02397453,19.41000000,-1.27000000,-0.01000000
777,0,0.01500000,0.33000000,0.94200000,0.04000000,-0.03000000,-0.10000000,0.10674880,0.16697607,-0.02408042,19.41000000,-1.27000000,-0.01000000
778,0,0.01700000,0.33100000,0.95000000,0.10000000,0.00000000,-0.08000000,0.10685007,0.16697607,-0.02416144,19.41000000,-1.27000000,-0.01000000
779,0,0.02100000,0.32900000,0.94100000,0.16000000,-0.08000000,-0.19000000,0.11589984,0.16245118,-0.03490804,19.42000000,-1.27000000,-0.01000000
780,0,0.02400000,0.32700000,0.94300000,0.11000000,0.01000000,-0.08000000,0.11602220,0.16246231,-0.03499703,19.42000000,-1.27000000,-0.01000000
781,0,0.01700000,0.33000000,0.93800000,0.19000000,0.01000000,-0.04000000,0.11672581,0.16249934,-0.03514516,19.42000000,-1.26000000,-0.01000000
782,0,0.02100000,0.33400000,0.93900000,0.00000000,-0.07000000,0.18000000,0.11672581,0.16241575,-0.03493022,19.42000000,-1.26000000,-0.01000000
783,0,0.02300000,0.33800000,0.94700000,-0.13000000,-0.09000000,-0.13000000,0.11615286,0.16201910,-0.03550317,19.42000000,-1.27000000,-0.01000000
784,0,0.02400000,0.33900000,0.94400000,-0.24000000,0.05000000,0.11000000,0.11572712,0.16210779,-0.03530803,19.42000000,-1.26000000,-0.01000000
785,0,0.02500000,0.33400000,0.94100000,0.11000000,-0.35000000,0.10000000,0.12100759,0.14530630,-0.03050761,19.42000000,-1.26000000,-0.01000000
786,0,0.02000000,0.33600000,0.94000000,-0.02000000,-0.05000000,0.24000000,0.12097932,0.14523564,-0.03016844,19.42000000,-1.26000000,-0.01000000
787,0,0.01700000,0.33300000,0.94200000,0.13000000,-0.04000000,0.06000000,0.12115458,0.14518172,-0.03008755,19.42000000,-1.26000000,-0.01000000
788,0,0.02200000,0.33300000,0.94600000,-0.23000000,0.09000000,-0.05000000,0.12084681,0.14530215,-0.03015445,19.42000000,-1.27000000,-0.01000000
789,0,0.01900000,0.32900000,0.94100000,0.22000000,0.05000000,0.09000000,0.12178589,0.14551557,-0.02977029,19.42000000,-1.27000000,-0.01000000
790,0,0.02200000,0.33200000,0.94100000,0.22000000,0.03000000,0.06000000,0.12219792,0.14557176,-0.02965792,19.42000000,-1.27000000,-0.01000000
791,0,0.02300000,0.33000000,0.93900000,0.07000000,-0.07000000,-0.22000000,0.12575932,0.14201036,-0.04085090,19.42000000,-1.27000000,-0.01000000
792,0,0.02400000,0.33600000,0.94200000,0.10000000,0.12000000,0.04000000,0.12588396,0.14215991,-0.04080105,19.42000000,-1.27000000,-0.01000000
793,0,0.02200000,0.33500000,0.94000000,-0.11000000,0.00000000,0.18000000,0.12576341,0.14215991,-0.04060379,19.42000000,-1.27000000,-0.01000000
794,0,0.02400000,0.33100000,0.94000000,-0.11000000,0.08000000,-0.16000000,0.12564339,0.14224720,-0.04077837,19.42000000,-1.26000000,-0.01000000
795,0,0.02400000,0.33300000,0.94300000,0.11000000,-0.18000000,0.04000000,0.12576483,0.14204849,-0.04073421,19.42000000,-1.27000000,-0.01000000
796,0,0.01900000,0.32900000,0.94400000,0.01000000,0.06000000,0.32000000,0.12577581,0.14211441,-0.04038261,19.42000000,-1.27000000,-0.01000000
797,0,0.02300000,0.33200000,0.94100000,0.35000000,-0.32000000,0.16000000,0.14494468,0.12458859,-0.03161970,19.42000000,-1.27000000,-0.01000000
798,0,0.02500000,0.33400000,0.94300000,0.03000000,0.09000000,-0.27000000,0.14498152,0.12469911,-0.03195125,19.42000000,-1.27000000,-0.01000000
799,0,0.02200000,0.33200000,0.94700000,-0.46000000,-0.01000000,-0.29000000,0.14450407,0.12468873,-0.03225225,19.42000000,-1.27000000,-0.01000000
800,0,0.01800000,0.32900000,0.94500000,-0.06000000,-0.25000000,0.11000000,0.14444362,0.12443687,-0.03214144,19.42000000,-1.27000000,-0.01000000
801,0,0.02700000,0.33100000,0.95000000,-0.13000000,0.07000000,-0.05000000,0.14431030,0.12450866,-0.03219271,19.42000000,-1.27000000,-0.01000000
802,0,0.01900000,0.33300000,0.93700000,0.06000000,0.30000000,0.04000000,0.14437030,0.12480867,-0.03215271,19.42000000,-1.27000000,-0.01000000
803,0,0.02700000,0.33000000,0.94500000,0.09000000,-0.07000000,0.24000000,0.14933336,0.12094851,-0.01891788,19.42000000,-1.27000000,-0.01000000
804,0,0.02600000,0.33300000,0.94400000,-0.06000000,-0.03000000,-0.15000000,0.14927003,0.12091684,-0.01907622,19.42000000,-1.27000000,-0.01000000
805,0,0.02300000,0.33400000,0.94600000,-0.19000000,-0.12000000,0.01000000,0.14907880,0.12079607,-0.01906615,19.42000000,-1.27000000,-0.01000000
806,0,0.02300000,0.32900000,0.94500000,0.08000000,0.15000000,-0.01000000,0.14915920,0.12094682,-0.01907620,19.42000000,-1.27000000,-0.01000000
807,0,0.02600000,0.33200000,0.94000000,-0.10000000,0.06000000,-0.15000000,0.14902570,0.12102692,-0.01927646,19.42000000,-1.27000000,-0.01000000
808,0,0.02100000,0.32900000,0.94000000,-0.06000000,0.18000000,0.26000000,0.14896368,0.12121298,-0.01900771,19.42000000,-1.27000000,-0.01000000
809,0,0.02400000,0.33000000,0.94400000,-0.00000000,0.16000000,-0.21000000,0.14896368,0.13018833,-0.03078785,19.42000000,-1.27000000,-0.01000000
810,0,0.01800000,0.33200000,0.94600000,-0.31000000,-0.03000000,-0.21000000,0.14863564,0.13015658,-0.03101008,19.42000000,-1.27000000,-0.01000000
811,0,0.01500000,0.33600000,0.94700000,-0.11000000,-0.03000000,-0.28000000,0.14852459,0.13012630,-0.03129276,19.42000000,-1.27000000,-0.01000000
812,0,0.02300000,0.33000000,0.94600000,-0.12000000,-0.06000000,0.06000000,0.14840298,0.13006549,-0.03123195,19.42000000,-1.27000000,-0.01000000
813,0,0.02200000,0.33400000,0.94200000,0.12000000,0.17000000,-0.10000000,0.14852390,0.13023680,-0.03133272,19.42000000,-1.27000000,-0.01000000
814,0,0.02700000,0.33000000,0.94300000,0.16000000,0.06000000,-0.33000000,0.14868291,0.13029643,-0.03166068,19.42000000,-1.26000000,-0.01000000
815,0,0.02800000,0.33100000,0.94300000,0.05000000,-0.02000000,-0.02000000,0.15145737,0.12918664,-0.03277047,19.42000000,-1.27000000,-0.01000000
816,0,0.02100000,0.33300000,0.94700000,0.13000000,0.13000000,0.04000000,0.15160024,0.12932951,-0.03272651,19.42000000,-1.27000000,-0.01000000
817,0,0.02500000,0.33100000,0.94400000,0.02000000,-0.02000000,-0.12000000,0.15162157,0.12930818,-0.03285449,19.42000000,-1.27000000,-0.01000000
818,0,0.02400000,0.32900000,0.94200000,0.03000000,0.06000000,0.24000000,0.15165399,0.12937301,-0.03259515,19.42000000,-1.27000000,-0.01000000
819,0,0.02000000,0.32900000,0.94900000,0.04000000,0.02000000,-0.23000000,0.15169751,0.12939478,-0.03284539,19.42000000,-1.27000000,-0.01000000
820,0,0.02700000,0.33200000,0.94400000,-0.04000000,-0.19000000,-0.06000000,0.15165431,0.12918959,-0.03291018,19.42000000,-1.27000000,-0.01000000
821,0,0.02400000,0.33400000,0.94300000,0.16000000,-0.09000000,-0.14000000,0.16049592,0.12421619,-0.04064659,19.42000000,-1.27000000,-0.01000000
822,0,0.02400000,0.33100000,0.94300000,0.47000000,-0.03000000,0.06000000,0.16099955,0.12418404,-0.04058229,19.42000000,-1.27000000,-0.01000000
823,0,0.01900000,0.33000000,0.94000000,0.03000000,0.19000000,-0.16000000,0.16103124,0.12438474,-0.04075130,19.42000000,-1.27000000,-0.01000000
824,0,0.02500000,0.33100000,0.94200000,0.15000000,-0.03000000,-0.07000000,0.16119165,0.12435266,-0.04082616,19.42000000,-1.27000000,-0.01000000
825,0,0.02600000,0.33100000,0.94500000,0.05000000,0.19000000,0.06000000,0.16124441,0.12455313,-0.04076285,19.42000000,-1.27000000,-0.01000000
826,0,0.02400000,0.33200000,0.93800000,0.11000000,-0.09000000,-0.02000000,0.16136267,0.12445637,-0.04078436,19.42000000,-1.27000000,-0.01000000
827,0,0.02200000,0.33400000,0.94300000,-0.05000000,-0.02000000,-0.08000000,0.15855725,0.12333420,-0.04527302,19.42000000,-1.27000000,-0.01000000
828,0,0.02000000,0.33100000,0.95100000,0.12000000,-0.11000000,-0.17000000,0.15868884,0.12321357,-0.04545944,19.42000000,-1.27000000,-0.01000000
829,0,0.01900000,0.33400000,0.94100000,0.08000000,0.33000000,0.17000000,0.15877440,0.12356648,-0.04527764,19.42000000,-1.27000000,-0.01000000
830,0,0.02700000,0.32900000,0.94900000,-0.12000000,0.14000000,0.07000000,0.15864452,0.12371800,-0.04520189,19.42000000,-1.27000000,-0.01000000
831,0,0.02000000,0.33800000,0.94500000,-0.14000000,-0.28000000,0.08000000,0.15849247,0.12341389,-0.04511500,19.42000000,-1.27000000,-0.01000000
832,0,0.02400000,0.33300000,0.94700000,0.15000000,0.03000000,0.02000000,0.15865377,0.12344615,-0.04509349,19.42000000,-1.27000000,-0.01000000
833,0,0.02300000,0.32800000,0.94100000,0.08000000,-0.15000000,-0.00000000,0.16330750,0.11472041,-0.04509349,19.42000000,-1.27000000,-0.01000000
834,0,0.02600000,0.33500000,0.94500000,-0.02000000,-0.23000000,0.08000000,0.16328531,0.11446523,-0.04500473,19.42000000,-1.27000000,-0.01000000
835,0,0.02500000,0.33200000,0.94200000,0.06000000,0.18000000,-0.16000000,0.16334916,0.11465678,-0.04517500,19.42000000,-1.27000000,-0.01000000
836,0,0.02100000,0.33000000,0.94600000,-0.18000000,0.19000000,0.13000000,0.16315547,0.11486124,-0.04503511,19.42000000,-1.27000000,-0.01000000
837,0,0.02200000,0.32700000,0.94500000,-0.13000000,0.14000000,0.10000000,0.16301629,0.11501112,-0.04492805,19.42000000,-1.27000000,-0.01000000
838,0,0.01900000,0.33700000,0.94200000,0.22000000,-0.09000000,0.25000000,0.16323588,0.11492129,-0.04467852,19.42000000,-1.27000000,-0.00000000
839,0,0.02400000,0.33200000,0.94100000,-0.02000000,0.09000000,-0.16000000,0.16320868,0.11504370,-0.04489612,19.42000000,-1.27000000,-0.00000000
