Measurement Count,IMU_MODE,Accel_X,Accel_Y,Accel_Z,Gyro_X,Gyro_Y,Gyro_Z,X_DEL_ANG,Y_DEL_ANG,Z_DEL_ANG,ROLL,PITCH,HEADING
1,0,-0.03400000,1.00200000,0.05200000,0.04000000,-0.01000000,0.01000000,0.01213821,-0.00303455,0.00303455,86.34000000,1.85000000,0.00000000
2,0,-0.03400000,0.99800000,0.05700000,-0.07000000,0.07000000,0.13000000,0.01205153,-0.00294788,0.00319552,86.88000000,2.12000000,0.02000000
3,0,-0.03900000,0.99800000,0.05700000,-0.32000000,0.23000000,-0.19000000,0.01172199,-0.00271102,0.00299985,86.86000000,2.12000000,0.02000000
4,0,-0.03700000,0.99900000,0.05200000,-0.07000000,0.00000000,0.06000000,0.01165282,-0.00271102,0.00305914,86.88000000,2.11000000,0.02000000
5,0,-0.04300000,0.99600000,0.05500000,0.09000000,0.14000000,0.15000000,0.01174104,-0.00257378,0.00320617,86.87000000,2.11000000,0.02000000
6,0,-0.03800000,0.99600000,0.05000000,-0.07000000,0.07000000,0.32000000,0.01166763,-0.00250038,0.00354175,86.88000000,2.14000000,0.02000000
7,0,-0.03500000,0.99900000,0.05400000,0.03000000,-0.02000000,0.14000000,0.01169998,-0.00252194,0.00369270,86.87000000,2.14000000,0.02000000
8,0,-0.03300000,0.99400000,0.05100000,-0.04000000,-0.09000000,-0.23000000,0.01165454,-0.00262420,0.00343138,86.87000000,2.14000000,0.02000000
9,0,-0.03700000,0.99900000,0.05300000,-0.10000000,-0.19000000,0.06000000,0.01154895,-0.00282480,0.00349473,86.88000000,2.13000000,0.02000000
10,0,-0.03400000,0.99700000,0.05400000,0.20000000,0.27000000,0.06000000,0.01175716,-0.00254372,0.00355719,86.87000000,2.11000000,0.02000000
11,0,-0.03500000,0.99500000,0.05000000,-0.19000000,0.18000000,-0.05000000,0.01156725,-0.00236380,0.00350722,86.88000000,2.12000000,0.02000000
12,0,-0.03900000,0.99800000,0.05600000,-0.07000000,0.09000000,0.13000000,0.01149524,-0.00227122,0.00364094,86.87000000,2.12000000,0.02000000
13,0,-0.03800000,0.99800000,0.05600000,-0.14000000,-0.21000000,0.18000000,0.01135257,-0.00248524,0.00382438,86.87000000,2.13000000,0.02000000
14,0,-0.04000000,0.99700000,0.05200000,-0.17000000,-0.05000000,0.11000000,0.01116615,-0.00254006,0.00394500,86.87000000,2.13000000,0.02000000
15,0,-0.03500000,0.99400000,0.05700000,-0.29000000,0.27000000,-0.07000000,0.01083009,-0.00222718,0.00386389,86.87000000,2.14000000,0.02000000
16,0,-0.03500000,0.99200000,0.05300000,-0.41000000,-0.10000000,-0.26000000,0.01000844,-0.00242759,0.00334284,86.86000000,2.14000000,0.02000000
17,0,-0.03500000,0.99100000,0.05500000,-0.10000000,0.11000000,0.08000000,0.00987409,-0.00227979,0.00345033,86.86000000,2.14000000,0.02000000
18,0,-0.03900000,1.00300000,0.05600000,0.06000000,0.07000000,-0.01000000,0.00997948,-0.00215683,0.00343276,86.86000000,2.14000000,0.02000000
19,0,-0.03600000,0.99600000,0.05600000,0.08000000,0.11000000,-0.07000000,0.01007255,-0.00202886,0.00335133,86.87000000,2.14000000,0.02000000
20,0,-0.03800000,0.99800000,0.05300000,0.01000000,0.14000000,-0.33000000,0.01008414,-0.00186653,0.00296868,86.86000000,2.14000000,0.02000000
21,0,-0.03200000,1.00000000,0.05200000,0.06000000,-0.03000000,0.13000000,0.01014447,-0.00189670,0.00309940,86.87000000,2.13000000,0.02000000
22,0,-0.03600000,0.99700000,0.05200000,0.06000000,0.04000000,0.10000000,0.01020695,-0.00185504,0.00320353,86.87000000,2.12000000,0.02000000
23,0,-0.03800000,0.99800000,0.05700000,0.02000000,-0.01000000,0.01000000,0.01022788,-0.00186551,0.00321399,86.87000000,2.12000000,0.02000000
24,0,-0.03800000,0.99800000,0.05600000,-0.13000000,0.07000000,-0.18000000,0.01008913,-0.00179080,0.00302189,86.87000000,2.13000000,0.02000000
25,0,-0.03400000,1.00300000,0.05200000,0.28000000,-0.07000000,-0.23000000,0.01039277,-0.00186671,0.00277247,86.87000000,2.12000000,0.02000000
26,0,-0.03600000,0.99400000,0.05100000,0.03000000,0.08000000,0.07000000,0.01042508,-0.00178057,0.00284784,86.86000000,2.12000000,0.02000000
27,0,-0.03900000,0.99700000,0.05300000,-0.29000000,0.01000000,-0.12000000,0.01011834,-0.00176999,0.00272092,86.86000000,2.13000000,0.02000000
28,0,-0.03800000,1.00000000,0.05200000,0.14000000,-0.15000000,-0.03000000,0.01028197,-0.00194531,0.00268585,86.87000000,2.14000000,0.02000000
29,0,-0.03200000,0.99700000,0.05800000,-0.17000000,-0.13000000,0.22000000,0.00768306,-0.00393272,0.00604915,86.87000000,2.13000000,0.02000000
30,0,-0.03100000,0.99500000,0.05700000,0.04000000,0.22000000,0.06000000,0.00772988,-0.00367521,0.00611938,86.87000000,2.13000000,0.02000000
31,0,-0.03800000,0.99800000,0.05500000,-0.04000000,-0.08000000,-0.23000000,0.00768540,-0.00376416,0.00586366,86.87000000,2.13000000,0.02000000
32,0,-0.03700000,1.00000000,0.05700000,-0.16000000,-0.09000000,-0.07000000,0.00749934,-0.00386882,0.00578226,86.87000000,2.13000000,0.02000000
33,0,-0.03400000,0.99900000,0.05500000,0.08000000,-0.22000000,0.20000000,0.00758938,-0.00411641,0.00600735,86.87000000,2.12000000,0.02000000
34,0,-0.04300000,0.99900000,0.05500000,-0.29000000,-0.19000000,-0.01000000,0.00725581,-0.00433496,0.00599584,86.86000000,2.13000000,0.02000000
35,0,-0.03700000,1.00200000,0.05400000,0.22000000,-0.11000000,-0.13000000,0.01929621,-0.01035516,-0.00111894,86.86000000,2.13000000,0.02000000
36,0,-0.03400000,1.00100000,0.05300000,0.09000000,-0.02000000,-0.30000000,0.01939201,-0.01037645,-0.00143826,86.86000000,2.14000000,0.02000000
37,0,-0.03700000,1.00100000,0.05700000,-0.02000000,-0.11000000,0.07000000,0.01937181,-0.01048752,-0.00136757,86.87000000,2.13000000,0.02000000
38,0,-0.03600000,1.00200000,0.05400000,0.06000000,-0.15000000,-0.13000000,0.01943196,-0.01063789,-0.00149789,86.87000000,2.13000000,0.02000000
39,0,-0.04000000,0.99500000,0.05500000,-0.18000000,-0.10000000,-0.00000000,0.01925242,-0.01073763,-0.00149789,86.87000000,2.13000000,0.02000000
40,0,-0.03300000,0.99900000,0.05600000,-0.03000000,-0.00000000,0.04000000,0.01922241,-0.01073763,-0.00145787,86.87000000,2.14000000,0.02000000
41,0,-0.04100000,0.99900000,0.05500000,0.12000000,-0.10000000,0.01000000,0.02590875,-0.01630958,-0.00090067,86.87000000,2.14000000,0.02000000
42,0,-0.03700000,0.99900000,0.05500000,-0.01000000,0.03000000,0.07000000,0.02589801,-0.01627736,-0.00082551,86.87000000,2.14000000,0.02000000
43,0,-0.04000000,0.99800000,0.05600000,0.05000000,-0.05000000,0.16000000,0.02595812,-0.01633747,-0.00063316,86.87000000,2.14000000,0.02000000
44,0,-0.03800000,0.99800000,0.05800000,0.14000000,0.10000000,-0.07000000,0.02612192,-0.01622047,-0.00071506,86.87000000,2.14000000,0.02000000
45,0,-0.03800000,1.00300000,0.05500000,-0.08000000,-0.03000000,-0.04000000,0.02604133,-0.01625069,-0.00075536,86.87000000,2.14000000,0.02000000
46,0,-0.04200000,0.99500000,0.05800000,0.11000000,-0.15000000,-0.07000000,0.02615228,-0.01640199,-0.00082596,86.87000000,2.14000000,0.02000000
47,0,-0.03800000,0.99600000,0.05500000,0.16000000,0.04000000,0.15000000,0.03509955,-0.01416517,0.00756211,86.87000000,2.14000000,0.02000000
48,0,-0.04200000,0.99900000,0.05700000,0.03000000,0.09000000,-0.06000000,0.03513071,-0.01407169,0.00749979,86.86000000,2.14000000,0.02000000
49,0,-0.03900000,1.00200000,0.05500000,0.20000000,-0.06000000,-0.01000000,0.03532967,-0.01413138,0.00748984,86.86000000,2.14000000,0.02000000
50,0,-0.04100000,0.99900000,0.05500000,0.14000000,-0.02000000,0.17000000,0.03546940,-0.01415134,0.00765952,86.87000000,2.14000000,0.02000000
51,0,-0.03600000,0.99500000,0.05300000,0.12000000,-0.21000000,0.08000000,0.03558809,-0.01435904,0.00773865,86.87000000,2.14000000,0.02000000
52,0,-0.03700000,1.00100000,0.05600000,-0.17000000,-0.13000000,-0.01000000,0.03541910,-0.01448827,0.00772871,86.87000000,2.14000000,0.02000000
53,0,-0.03600000,0.99900000,0.05400000,-0.04000000,-0.08000000,-0.07000000,0.03319571,-0.01893505,0.00383777,86.87000000,2.14000000,0.02000000
54,0,-0.03400000,0.99500000,0.05900000,-0.04000000,-0.19000000,0.03000000,0.03315172,-0.01914399,0.00387076,86.87000000,2.14000000,0.02000000
55,0,-0.03300000,0.99900000,0.05600000,-0.18000000,0.01000000,-0.01000000,0.03297043,-0.01913392,0.00386069,86.87000000,2.14000000,0.02000000
56,0,-0.03600000,0.99300000,0.05700000,0.07000000,0.19000000,-0.06000000,0.03304197,-0.01893975,0.00379937,86.87000000,2.14000000,0.02000000
57,0,-0.03600000,1.00200000,0.05400000,0.17000000,0.06000000,0.14000000,0.03323289,-0.01887237,0.00395660,86.87000000,2.14000000,0.02000000
58,0,-0.03800000,0.99300000,0.05500000,0.13000000,-0.05000000,0.09000000,0.03336986,-0.01892505,0.00405143,86.87000000,2.14000000,0.02000000
59,0,-0.03000000,0.99800000,0.05400000,0.31000000,-0.04000000,0.13000000,0.05052479,-0.02113859,0.01124544,86.87000000,2.14000000,0.02000000
60,0,-0.03500000,0.99700000,0.05500000,0.05000000,-0.12000000,0.17000000,0.05058934,-0.02129350,0.01146489,86.87000000,2.13000000,0.02000000
61,0,-0.03900000,1.00100000,0.05200000,0.12000000,0.04000000,0.08000000,0.05071735,-0.02125083,0.01155023,86.87000000,2.14000000,0.02000000
62,0,-0.03500000,1.00100000,0.05800000,-0.34000000,0.10000000,0.27000000,0.05037224,-0.02114932,0.01182430,86.87000000,2.14000000,0.02000000
63,0,-0.03600000,1.00300000,0.05200000,0.01000000,0.06000000,-0.22000000,0.05038230,-0.02108895,0.01160293,86.87000000,2.14000000,0.02000000
64,0,-0.03800000,0.99400000,0.05500000,-0.08000000,0.15000000,-0.06000000,0.05030220,-0.02093876,0.01154285,86.87000000,2.14000000,0.02000000
65,0,-0.03500000,0.99900000,0.05800000,0.25000000,-0.37000000,-0.05000000,0.06430187,-0.04165827,0.00874292,86.87000000,2.14000000,0.02000000
66,0,-0.04200000,0.99500000,0.05500000,0.03000000,0.07000000,-0.39000000,0.06433367,-0.04158406,0.00832948,86.88000000,2.14000000,0.02000000
67,0,-0.03500000,0.99300000,0.05500000,-0.04000000,0.21000000,-0.02000000,0.06429325,-0.04137185,0.00830926,86.87000000,2.14000000,0.02000000
68,0,-0.03300000,1.00100000,0.05300000,-0.11000000,0.00000000,-0.19000000,0.06417278,-0.04137185,0.00810118,86.87000000,2.14000000,0.02000000
69,0,-0.03600000,0.99700000,0.05500000,0.06000000,0.06000000,0.27000000,0.06423473,-0.04130991,0.00837995,86.87000000,2.14000000,0.02000000
70,0,-0.03600000,1.00200000,0.05400000,-0.08000000,-0.10000000,-0.07000000,0.06415421,-0.04141055,0.00830949,86.87000000,2.14000000,0.02000000
71,0,-0.03700000,0.99800000,0.05600000,0.20000000,0.06000000,-0.01000000,0.07522453,-0.03808946,0.00775598,86.88000000,2.14000000,0.02000000
72,0,-0.03900000,0.99600000,0.05100000,0.03000000,0.01000000,-0.19000000,0.07525597,-0.03807898,0.00755687,86.88000000,2.14000000,0.02000000
73,0,-0.03400000,0.99400000,0.05200000,-0.40000000,0.15000000,-0.08000000,0.07483498,-0.03792110,0.00747267,86.87000000,2.14000000,0.02000000
74,0,-0.03600000,0.99600000,0.05300000,0.18000000,-0.01000000,-0.02000000,0.07501412,-0.03793106,0.00745276,86.87000000,2.14000000,0.02000000
75,0,-0.03800000,0.99500000,0.05500000,-0.03000000,0.23000000,-0.13000000,0.07498219,-0.03768624,0.00731439,86.87000000,2.14000000,0.02000000
76,0,-0.03100000,0.99500000,0.05100000,-0.08000000,-0.02000000,-0.03000000,0.07490082,-0.03770659,0.00728388,86.88000000,2.14000000,0.02000000
77,0,-0.03600000,0.99900000,0.05200000,0.10000000,0.28000000,-0.09000000,0.08046714,-0.02212089,0.00227419,86.87000000,2.14000000,0.02000000
78,0,-0.03500000,1.00100000,0.05900000,-0.10000000,-0.04000000,0.09000000,0.08036101,-0.02216334,0.00236970,86.87000000,2.14000000,0.02000000
79,0,-0.03500000,0.99800000,0.05600000,0.11000000,-0.11000000,-0.06000000,0.08047151,-0.02227384,0.00230943,86.87000000,2.14000000,0.02000000
80,0,-0.03700000,1.00100000,0.04900000,-0.03000000,0.10000000,0.06000000,0.08044117,-0.02217272,0.00237010,86.88000000,2.14000000,0.02000000
81,0,-0.04300000,0.99700000,0.05600000,0.22000000,0.21000000,0.13000000,0.08066023,-0.02196361,0.00249955,86.88000000,2.14000000,0.02000000
82,0,-0.03900000,0.99900000,0.05500000,-0.02000000,-0.15000000,-0.04000000,0.08064014,-0.02211430,0.00245937,86.88000000,2.14000000,0.02000000
83,0,-0.03500000,0.99900000,0.05800000,0.13000000,0.03000000,0.13000000,0.08794728,-0.02042804,0.00976650,86.88000000,2.14000000,0.02000000
84,0,-0.03700000,0.99600000,0.04900000,-0.19000000,0.20000000,-0.15000000,0.08774594,-0.02021611,0.00960756,86.88000000,2.14000000,0.02000000
85,0,-0.03800000,0.99900000,0.05300000,0.12000000,0.18000000,0.04000000,0.08787239,-0.02002645,0.00964970,86.88000000,2.14000000,0.02000000
86,0,-0.03400000,0.99800000,0.05100000,0.19000000,-0.04000000,-0.04000000,0.08806959,-0.02006797,0.00960819,86.88000000,2.14000000,0.02000000
87,0,-0.04400000,1.00300000,0.05300000,-0.06000000,0.05000000,-0.13000000,0.08798224,-0.01999517,0.00941892,86.89000000,2.13000000,0.02000000
88,0,-0.04300000,0.99800000,0.05300000,-0.11000000,0.16000000,0.04000000,0.08784669,-0.01979801,0.00946821,86.89000000,2.14000000,0.02000000
89,0,-0.03600000,0.99700000,0.05200000,-0.06000000,-0.30000000,0.12000000,0.08456434,-0.03620980,0.01603293,86.89000000,2.14000000,0.02000000
90,0,-0.04200000,0.99600000,0.05700000,-0.20000000,0.10000000,-0.18000000,0.08435379,-0.03610453,0.01584344,86.89000000,2.15000000,0.02000000
91,0,-0.03700000,0.99400000,0.05600000,0.05000000,-0.01000000,-0.04000000,0.08440384,-0.03611454,0.01580340,86.88000000,2.14000000,0.02000000
92,0,-0.03400000,1.00300000,0.05300000,-0.29000000,0.15000000,-0.12000000,0.08411197,-0.03596357,0.01568262,86.88000000,2.14000000,0.02000000
93,0,-0.03800000,0.99700000,0.05000000,0.18000000,-0.02000000,-0.11000000,0.08429253,-0.03598363,0.01557228,86.89000000,2.14000000,0.02000000
94,0,-0.03300000,0.99600000,0.05600000,0.00000000,0.36000000,-0.07000000,0.08429253,-0.03562319,0.01550219,86.88000000,2.14000000,0.02000000
95,0,-0.04000000,0.99800000,0.05000000,-0.01000000,0.02000000,-0.22000000,0.08372741,-0.03449295,0.00306955,86.88000000,2.14000000,0.02000000
96,0,-0.04000000,0.99600000,0.05600000,-0.11000000,-0.00000000,0.02000000,0.08361198,-0.03449295,0.00309054,86.88000000,2.14000000,0.02000000
97,0,-0.03400000,0.99600000,0.05500000,-0.05000000,-0.02000000,0.19000000,0.08356070,-0.03451346,0.00328539,86.88000000,2.14000000,0.02000000
98,0,-0.04000000,1.00200000,0.05300000,0.03000000,-0.08000000,0.02000000,0.08359061,-0.03459322,0.00330533,86.88000000,2.14000000,0.02000000
99,0,-0.03500000,0.99800000,0.04900000,0.15000000,-0.17000000,0.04000000,0.08373947,-0.03476192,0.00334503,86.89000000,2.15000000,0.02000000
100,0,-0.03500000,0.99300000,0.05800000,-0.16000000,-0.30000000,0.07000000,0.08358019,-0.03506057,0.00341471,86.89000000,2.15000000,0.02000000
101,0,-0.02900000,0.99600000,0.05400000,-0.05000000,-0.03000000,0.01000000,0.08080513,-0.03672561,0.00396973,86.89000000,2.14000000,0.02000000
102,0,-0.03900000,0.99700000,0.05000000,0.16000000,-0.07000000,-0.05000000,0.08098040,-0.03680228,0.00391496,86.89000000,2.14000000,0.02000000
103,0,-0.03900000,0.99500000,0.05300000,-0.00000000,-0.20000000,0.11000000,0.08098040,-0.03700510,0.00402651,86.89000000,2.14000000,0.02000000
104,0,-0.04000000,0.99600000,0.05800000,-0.08000000,-0.18000000,-0.04000000,0.08090036,-0.03718519,0.00398649,86.89000000,2.14000000,0.02000000
105,0,-0.04200000,0.99800000,0.05000000,-0.00000000,0.05000000,-0.04000000,0.08090036,-0.03713561,0.00394682,86.89000000,2.15000000,0.02000000
106,0,-0.04100000,0.99700000,0.05500000,-0.13000000,-0.13000000,-0.05000000,0.08077113,-0.03726484,0.00389711,86.89000000,2.14000000,0.02000000
107,0,-0.04000000,0.99800000,0.05100000,0.10000000,0.13000000,-0.04000000,0.08631766,-0.03005435,0.00167850,86.89000000,2.15000000,0.02000000
108,0,-0.04200000,0.99300000,0.05200000,0.26000000,0.32000000,-0.18000000,0.08659254,-0.02971603,0.00148820,86.89000000,2.14000000,0.02000000
109,0,-0.03600000,0.99700000,0.05300000,-0.01000000,0.18000000,-0.05000000,0.08658243,-0.02953388,0.00143760,86.89000000,2.14000000,0.02000000
110,0,-0.03900000,0.99500000,0.05500000,0.23000000,0.02000000,-0.23000000,0.08681457,-0.02951369,0.00120545,86.89000000,2.15000000,0.02000000
111,0,-0.03600000,0.99500000,0.05900000,0.12000000,0.36000000,0.03000000,0.08693477,-0.02915308,0.00123550,86.89000000,2.15000000,0.02000000
112,0,-0.04200000,1.00100000,0.05600000,-0.06000000,-0.09000000,0.07000000,0.08687493,-0.02924284,0.00130532,86.89000000,2.15000000,0.02000000
113,0,-0.03700000,1.00200000,0.05500000,0.02000000,-0.20000000,-0.01000000,0.08800816,-0.04057519,0.00073871,86.89000000,2.15000000,0.02000000
114,0,-0.04100000,1.00000000,0.05600000,0.05000000,0.06000000,0.10000000,0.08806376,-0.04050848,0.00084989,86.89000000,2.15000000,0.02000000
115,0,-0.03700000,1.00000000,0.05400000,0.01000000,-0.34000000,0.11000000,0.08807388,-0.04085278,0.00096128,86.89000000,2.15000000,0.02000000
116,0,-0.03700000,0.99100000,0.05600000,-0.12000000,-0.02000000,-0.01000000,0.08795294,-0.04087294,0.00095121,86.89000000,2.15000000,0.02000000
117,0,-0.03800000,1.00000000,0.05600000,-0.15000000,0.09000000,-0.02000000,0.08780379,-0.04078345,0.00093132,86.89000000,2.15000000,0.02000000
118,0,-0.03700000,0.99600000,0.05800000,-0.14000000,0.09000000,-0.04000000,0.08766322,-0.04069308,0.00089116,86.89000000,2.15000000,0.02000000
119,0,-0.03800000,0.99800000,0.05500000,-0.18000000,0.06000000,-0.23000000,0.07771714,-0.03737773,-0.01181772,86.89000000,2.15000000,0.02000000
120,0,-0.04100000,0.99800000,0.05200000,-0.01000000,-0.11000000,-0.19000000,0.07770645,-0.03749531,-0.01202082,86.89000000,2.15000000,0.02000000
121,0,-0.03600000,0.99600000,0.05400000,0.04000000,0.28000000,-0.14000000,0.07774670,-0.03721356,-0.01216169,86.89000000,2.15000000,0.02000000
122,0,-0.04000000,0.99800000,0.05700000,-0.04000000,-0.11000000,-0.23000000,0.07770670,-0.03732357,-0.01239170,86.89000000,2.15000000,0.02000000
123,0,-0.03700000,0.99500000,0.05300000,-0.06000000,-0.14000000,0.19000000,0.07764333,-0.03747142,-0.01219105,86.89000000,2.15000000,0.02000000
124,0,-0.03700000,0.99900000,0.05400000,-0.07000000,0.15000000,0.19000000,0.07757231,-0.03731923,-0.01199828,86.89000000,2.15000000,0.02000000
125,0,-0.03500000,1.00300000,0.05400000,-0.17000000,-0.24000000,-0.29000000,0.06814434,-0.05062930,-0.02808129,86.89000000,2.15000000,0.02000000
126,0,-0.03600000,0.99300000,0.05600000,-0.11000000,0.18000000,-0.13000000,0.06802671,-0.05043681,-0.02822031,86.89000000,2.15000000,0.02000000
127,0,-0.03400000,0.99700000,0.05400000,-0.35000000,0.02000000,-0.07000000,0.06767570,-0.05041675,-0.02829051,86.88000000,2.15000000,0.02000000
128,0,-0.03200000,0.99700000,0.05600000,0.21000000,0.19000000,-0.06000000,0.06788455,-0.05022779,-0.02835019,86.88000000,2.15000000,0.02000000
129,0,-0.03900000,1.00000000,0.05100000,0.20000000,0.15000000,0.02000000,0.06808289,-0.05007904,-0.02833035,86.89000000,2.14000000,0.02000000
130,0,-0.03700000,1.00000000,0.05500000,-0.15000000,0.02000000,-0.14000000,0.06793274,-0.05005902,-0.02847049,86.89000000,2.15000000,0.02000000
131,0,-0.03700000,1.00000000,0.05400000,-0.05000000,-0.13000000,-0.08000000,0.06511079,-0.05739609,-0.03298561,86.89000000,2.15000000,0.02000000
132,0,-0.03500000,0.99800000,0.05600000,0.12000000,-0.09000000,-0.05000000,0.06523729,-0.05749096,-0.03303832,86.89000000,2.15000000,0.02000000
133,0,-0.03800000,1.00200000,0.05400000,-0.05000000,0.05000000,-0.08000000,0.06518665,-0.05744033,-0.03311933,86.89000000,2.15000000,0.02000000
134,0,-0.03500000,1.00200000,0.05600000,0.30000000,0.30000000,0.04000000,0.06548573,-0.05714125,-0.03307945,86.89000000,2.15000000,0.02000000
135,0,-0.03400000,1.00100000,0.05300000,0.18000000,0.09000000,0.01000000,0.06566780,-0.05705022,-0.03306934,86.89000000,2.15000000,0.02000000
136,0,-0.03500000,0.99900000,0.05500000,-0.05000000,-0.10000000,0.29000000,0.06561796,-0.05714989,-0.03278030,86.89000000,2.14000000,0.02000000
137,0,-0.03800000,0.99900000,0.05300000,0.16000000,0.13000000,-0.10000000,0.06578411,-0.05701489,-0.03288414,86.89000000,2.14000000,0.02000000
138,0,-0.03500000,0.99700000,0.05400000,0.05000000,0.02000000,-0.20000000,0.06870596,-0.05584615,-0.04457154,86.89000000,2.14000000,0.02000000
139,0,-0.03700000,1.00100000,0.05300000,-0.05000000,-0.02000000,0.03000000,0.06865281,-0.05586741,-0.04453965,86.89000000,2.14000000,0.02000000
140,0,-0.03900000,0.99200000,0.05400000,0.07000000,-0.13000000,0.02000000,0.06872924,-0.05600935,-0.04451781,86.89000000,2.14000000,0.02000000
141,0,-0.03000000,1.00000000,0.05300000,-0.11000000,-0.07000000,-0.14000000,0.06861795,-0.05608017,-0.04465945,86.89000000,2.15000000,0.02000000
142,0,-0.04000000,1.00000000,0.05400000,0.14000000,0.21000000,0.14000000,0.06875909,-0.05586846,-0.04451831,86.89000000,2.15000000,0.02000000
143,0,-0.04100000,0.99400000,0.05000000,-0.10000000,0.10000000,-0.02000000,0.06865861,-0.05576798,-0.04453841,86.89000000,2.15000000,0.02000000
144,0,-0.03700000,0.99900000,0.05400000,-0.02000000,0.08000000,0.14000000,0.06754999,-0.05133350,-0.03677807,86.89000000,2.15000000,0.02000000
145,0,-0.03400000,0.99400000,0.05700000,0.22000000,0.03000000,-0.20000000,0.06778043,-0.05130208,-0.03698756,86.89000000,2.15000000,0.02000000
146,0,-0.03400000,0.99900000,0.05600000,-0.05000000,0.06000000,0.03000000,0.06773049,-0.05124215,-0.03695760,86.89000000,2.15000000,0.02000000
147,0,-0.04200000,1.00000000,0.05200000,-0.16000000,0.32000000,-0.15000000,0.06757068,-0.05092252,-0.03710742,86.89000000,2.15000000,0.02000000
148,0,-0.03500000,1.00100000,0.05400000,-0.05000000,-0.16000000,-0.29000000,0.06752062,-0.05108272,-0.03739778,86.89000000,2.15000000,0.02000000
149,0,-0.03800000,1.00000000,0.05200000,-0.22000000,0.23000000,-0.04000000,0.06730072,-0.05085282,-0.03743776,86.89000000,2.15000000,0.03000000
150,0,-0.04200000,0.99600000,0.05600000,0.07000000,-0.12000000,-0.19000000,0.07119924,-0.05753601,-0.04801948,86.89000000,2.15000000,0.02000000
151,0,-0.04000000,0.99900000,0.05800000,0.05000000,0.02000000,-0.04000000,0.07125149,-0.05751511,-0.04806127,86.89000000,2.15000000,0.02000000
152,0,-0.04000000,0.99900000,0.05400000,-0.23000000,0.00000000,0.16000000,0.07102175,-0.05751511,-0.04790146,86.89000000,2.15000000,0.02000000
153,0,-0.03500000,1.00000000,0.05300000,0.15000000,0.20000000,0.12000000,0.07117169,-0.05731520,-0.04778151,86.89000000,2.15000000,0.02000000
154,0,-0.04300000,0.99600000,0.05100000,0.23000000,0.16000000,0.00000000,0.07141601,-0.05714524,-0.04778151,86.89000000,2.15000000,0.02000000
155,0,-0.03600000,0.99400000,0.05000000,-0.16000000,0.25000000,0.00000000,0.07125520,-0.05689398,-0.04778151,86.89000000,2.15000000,0.03000000
156,0,-0.03800000,0.99800000,0.05500000,-0.01000000,0.16000000,-0.07000000,0.07068889,-0.04783307,-0.05174566,86.89000000,2.15000000,0.03000000
157,0,-0.03700000,0.99700000,0.05600000,-0.05000000,-0.10000000,-0.21000000,0.07063466,-0.04794153,-0.05197344,86.89000000,2.15000000,0.03000000
158,0,-0.03600000,0.99300000,0.05300000,0.01000000,0.16000000,-0.18000000,0.07064475,-0.04778004,-0.05215512,86.89000000,2.15000000,0.03000000
159,0,-0.03800000,1.00200000,0.05500000,0.23000000,0.09000000,-0.05000000,0.07087854,-0.04768856,-0.05220595,86.89000000,2.15000000,0.03000000
160,0,-0.03700000,1.00600000,0.05600000,0.11000000,-0.10000000,-0.09000000,0.07098765,-0.04778775,-0.05229522,86.89000000,2.15000000,0.03000000
161,0,-0.04400000,0.99400000,0.05000000,-0.10000000,-0.01000000,0.13000000,0.07088789,-0.04779773,-0.05216552,86.89000000,2.15000000,0.03000000
162,0,-0.03400000,0.99800000,0.05700000,-0.00000000,0.06000000,0.07000000,0.07088789,-0.04449521,-0.04831259,86.89000000,2.15000000,0.03000000
163,0,-0.03700000,0.99800000,0.05200000,-0.01000000,0.16000000,0.06000000,0.07087744,-0.04432800,-0.04824989,86.88000000,2.15000000,0.03000000
164,0,-0.04200000,1.00100000,0.05300000,-0.10000000,0.07000000,0.09000000,0.07077784,-0.04425828,-0.04816025,86.89000000,2.15000000,0.03000000
165,0,-0.03600000,0.99900000,0.05500000,-0.11000000,-0.02000000,0.21000000,0.07066779,-0.04427829,-0.04795014,86.89000000,2.15000000,0.03000000
166,0,-0.04000000,0.99600000,0.05500000,-0.27000000,0.07000000,-0.19000000,0.07040042,-0.04420897,-0.04813829,86.89000000,2.15000000,0.03000000
167,0,-0.03800000,0.99900000,0.05300000,-0.06000000,0.04000000,0.06000000,0.07034094,-0.04416932,-0.04807882,86.88000000,2.15000000,0.03000000
168,0,-0.04000000,0.99700000,0.05500000,0.05000000,-0.04000000,-0.24000000,0.07316783,-0.04643083,-0.06164787,86.89000000,2.15000000,0.03000000
169,0,-0.04300000,0.99600000,0.05700000,0.05000000,-0.21000000,-0.01000000,0.07321917,-0.04664645,-0.06165814,86.89000000,2.15000000,0.03000000
170,0,-0.03500000,0.99600000,0.05200000,0.11000000,-0.20000000,-0.01000000,0.07332909,-0.04684631,-0.06166813,86.88000000,2.15000000,0.03000000
171,0,-0.03700000,0.99900000,0.05200000,-0.02000000,0.14000000,-0.31000000,0.07330923,-0.04670727,-0.06197600,86.89000000,2.15000000,0.03000000
172,0,-0.03500000,0.99600000,0.05200000,0.35000000,-0.20000000,0.12000000,0.07365949,-0.04690742,-0.06185591,86.89000000,2.15000000,0.03000000
173,0,-0.04000000,0.99600000,0.05200000,-0.05000000,-0.01000000,0.06000000,0.07360901,-0.04691752,-0.06179534,86.89000000,2.15000000,0.03000000
174,0,-0.03500000,0.99900000,0.05700000,0.11000000,0.02000000,0.09000000,0.07971849,-0.04580670,-0.05679668,86.89000000,2.15000000,0.03000000
175,0,-0.03400000,0.99800000,0.05400000,-0.27000000,-0.08000000,0.00000000,0.07943837,-0.04588970,-0.05679668,86.89000000,2.15000000,0.03000000
176,0,-0.03800000,0.99800000,0.05600000,0.16000000,-0.02000000,0.25000000,0.07959818,-0.04590968,-0.05654697,86.89000000,2.15000000,0.03000000
177,0,-0.03800000,0.99600000,0.05000000,0.05000000,0.16000000,-0.19000000,0.07964766,-0.04575135,-0.05673498,86.89000000,2.15000000,0.03000000
178,0,-0.03300000,1.00100000,0.05200000,-0.13000000,-0.45000000,-0.20000000,0.07951998,-0.04619332,-0.05693141,86.89000000,2.15000000,0.03000000
179,0,-0.03800000,0.99500000,0.05400000,0.14000000,0.02000000,0.11000000,0.07965782,-0.04617363,-0.05682311,86.89000000,2.15000000,0.03000000
180,0,-0.03500000,0.99800000,0.05300000,-0.10000000,0.27000000,-0.12000000,0.07409967,-0.03116664,-0.06349288,86.89000000,2.15000000,0.03000000
181,0,-0.03700000,0.99600000,0.05400000,0.01000000,-0.09000000,-0.06000000,0.07411001,-0.03125963,-0.06355487,86.89000000,2.15000000,0.03000000
182,0,-0.04500000,0.99600000,0.05500000,-0.17000000,0.23000000,0.19000000,0.07393777,-0.03102660,-0.06336238,86.89000000,2.15000000,0.03000000
183,0,-0.03900000,1.00000000,0.05600000,-0.13000000,-0.02000000,0.08000000,0.07380690,-0.03104674,-0.06328184,86.89000000,2.15000000,0.03000000
184,0,-0.04100000,0.99800000,0.04900000,-0.05000000,-0.02000000,0.37000000,0.07375722,-0.03106661,-0.06291421,86.89000000,2.15000000,0.03000000
185,0,-0.03300000,0.99700000,0.05100000,0.35000000,0.05000000,0.12000000,0.07410539,-0.03101687,-0.06279484,86.89000000,2.15000000,0.03000000
186,0,-0.03900000,1.00100000,0.05100000,0.04000000,0.02000000,0.15000000,0.07636544,-0.02988685,-0.05431965,86.89000000,2.15000000,0.03000000
187,0,-0.03900000,0.99900000,0.05800000,0.04000000,-0.17000000,0.20000000,0.07640731,-0.03006479,-0.05411030,86.89000000,2.15000000,0.03000000
188,0,-0.03700000,0.99700000,0.05800000,0.01000000,0.02000000,0.18000000,0.07641727,-0.03004488,-0.05393111,86.89000000,2.15000000,0.03000000
189,0,-0.03700000,1.00400000,0.05000000,0.04000000,0.24000000,-0.05000000,0.07645650,-0.02980951,-0.05398014,86.89000000,2.15000000,0.03000000
190,0,-0.03800000,0.99800000,0.05100000,0.01000000,0.05000000,-0.02000000,0.07646642,-0.02975989,-0.05399999,86.89000000,2.15000000,0.03000000
191,0,-0.03400000,0.99900000,0.05300000,0.20000000,-0.04000000,-0.09000000,0.07666419,-0.02979944,-0.05408898,86.89000000,2.15000000,0.03000000
192,0,-0.04000000,0.99800000,0.05400000,0.09000000,0.01000000,-0.15000000,0.08166501,-0.02924380,-0.06242370,86.89000000,2.15000000,0.03000000
193,0,-0.03400000,0.99600000,0.05000000,-0.03000000,0.13000000,0.29000000,0.08163320,-0.02910592,-0.06211612,86.89000000,2.15000000,0.03000000
194,0,-0.03500000,0.99800000,0.05300000,-0.07000000,0.22000000,-0.09000000,0.08156311,-0.02888565,-0.06220623,86.89000000,2.15000000,0.04000000
195,0,-0.03800000,1.00700000,0.05400000,-0.04000000,0.20000000,0.12000000,0.08152348,-0.02868751,-0.06208735,86.89000000,2.15000000,0.04000000
196,0,-0.03400000,0.99800000,0.05900000,0.22000000,-0.03000000,0.17000000,0.08174123,-0.02871720,-0.06191908,86.89000000,2.15000000,0.04000000
197,0,-0.03700000,0.99700000,0.05300000,-0.05000000,-0.03000000,-0.18000000,0.08169159,-0.02874699,-0.06209780,86.89000000,2.15000000,0.04000000
198,0,-0.03700000,0.99900000,0.04900000,0.12000000,-0.11000000,-0.10000000,0.08836233,-0.03486183,-0.06765676,86.90000000,2.15000000,0.04000000
199,0,-0.03500000,0.99700000,0.05400000,-0.17000000,0.11000000,0.00000000,0.08818301,-0.03474580,-0.06765676,86.90000000,2.15000000,0.04000000
200,0,-0.03600000,0.99800000,0.05500000,0.01000000,-0.08000000,-0.07000000,0.08819296,-0.03482542,-0.06772643,86.90000000,2.15000000,0.04000000
201,0,-0.03700000,0.99700000,0.05500000,-0.01000000,-0.01000000,0.21000000,0.08818298,-0.03483540,-0.06751687,86.90000000,2.15000000,0.04000000
202,0,-0.03800000,0.99600000,0.05300000,-0.06000000,0.11000000,0.00000000,0.08812010,-0.03472012,-0.06751687,86.89000000,2.15000000,0.03000000
203,0,-0.03400000,0.99800000,0.05600000,0.18000000,0.01000000,0.12000000,0.08830260,-0.03470999,-0.06739521,86.90000000,2.15000000,0.03000000
204,0,-0.03600000,0.99400000,0.05100000,-0.18000000,-0.06000000,0.09000000,0.07815216,-0.03809347,-0.06231999,86.89000000,2.15000000,0.03000000
205,0,-0.03800000,0.99500000,0.05500000,0.01000000,-0.21000000,-0.04000000,0.07816266,-0.03831399,-0.06236199,86.89000000,2.15000000,0.03000000
206,0,-0.03500000,0.99600000,0.05700000,-0.11000000,-0.03000000,0.06000000,0.07805265,-0.03834399,-0.06230199,86.89000000,2.15000000,0.03000000
207,0,-0.03400000,1.00000000,0.05600000,0.10000000,0.19000000,0.13000000,0.07815094,-0.03815724,-0.06217422,86.89000000,2.15000000,0.03000000
208,0,-0.03600000,1.00000000,0.05900000,0.19000000,-0.13000000,0.01000000,0.07833782,-0.03828511,-0.06216438,86.89000000,2.15000000,0.03000000
209,0,-0.04100000,0.99900000,0.06000000,-0.07000000,-0.27000000,0.05000000,0.07826770,-0.03855557,-0.06211429,86.89000000,2.15000000,0.03000000
210,0,-0.04000000,0.99900000,0.06000000,-0.03000000,-0.06000000,0.17000000,0.07660029,-0.04189038,-0.05266565,86.89000000,2.14000000,0.03000000
211,0,-0.03300000,0.99900000,0.05300000,0.12000000,-0.23000000,0.17000000,0.07672473,-0.04212889,-0.05248937,86.89000000,2.15000000,0.03000000
212,0,-0.03800000,0.99800000,0.05900000,0.10000000,0.10000000,0.02000000,0.07682357,-0.04203005,-0.05246960,86.89000000,2.15000000,0.03000000
213,0,-0.03600000,1.00500000,0.05700000,0.14000000,-0.12000000,0.08000000,0.07696277,-0.04214937,-0.05239005,86.89000000,2.15000000,0.03000000
214,0,-0.03900000,0.99800000,0.05700000,0.01000000,0.19000000,0.04000000,0.07697261,-0.04196245,-0.05235070,86.89000000,2.15000000,0.03000000
215,0,-0.03700000,0.99300000,0.05800000,0.09000000,-0.07000000,0.10000000,0.07706259,-0.04203243,-0.05225072,86.89000000,2.15000000,0.03000000
216,0,-0.03600000,0.99400000,0.05100000,0.04000000,-0.19000000,-0.00000000,0.07928636,-0.05259535,-0.05225072,86.89000000,2.15000000,0.03000000
217,0,-0.04200000,0.99900000,0.05400000,-0.03000000,-0.26000000,-0.15000000,0.07925517,-0.05286565,-0.05240666,86.89000000,2.15000000,0.03000000
218,0,-0.03900000,1.00000000,0.05300000,-0.09000000,-0.14000000,-0.12000000,0.07916646,-0.05300365,-0.05252495,86.89000000,2.15000000,0.03000000
219,0,-0.03800000,1.00200000,0.05500000,0.04000000,-0.00000000,0.21000000,0.07920579,-0.05300365,-0.05231845,86.89000000,2.15000000,0.03000000
220,0,-0.03500000,1.00000000,0.05100000,-0.01000000,0.17000000,0.13000000,0.07919592,-0.05283583,-0.05219012,86.89000000,2.15000000,0.03000000
221,0,-0.03400000,0.99900000,0.05000000,0.01000000,-0.08000000,0.26000000,0.07921063,-0.05295347,-0.05180781,86.89000000,2.15000000,0.03000000
222,0,-0.03600000,0.99500000,0.05800000,0.01000000,-0.07000000,0.06000000,0.07977068,-0.05687387,-0.04844746,86.89000000,2.15000000,0.03000000
223,0,-0.03400000,0.99800000,0.05500000,0.03000000,0.00000000,-0.04000000,0.07980229,-0.05687387,-0.04848960,86.89000000,2.14000000,0.03000000
224,0,-0.03200000,1.00300000,0.05600000,-0.13000000,-0.24000000,0.04000000,0.07967229,-0.05711388,-0.04844960,86.89000000,2.15000000,0.03000000
225,0,-0.03900000,0.99800000,0.05700000,0.01000000,0.04000000,0.04000000,0.07968219,-0.05707429,-0.04841001,86.89000000,2.15000000,0.03000000
226,0,-0.03700000,0.99500000,0.05500000,-0.08000000,-0.14000000,0.05000000,0.07960178,-0.05721500,-0.04835976,86.89000000,2.14000000,0.03000000
227,0,-0.04100000,0.99900000,0.05600000,0.08000000,-0.28000000,0.08000000,0.07968158,-0.05749427,-0.04827997,86.89000000,2.14000000,0.03000000
228,0,-0.04100000,0.99500000,0.05400000,0.03000000,0.06000000,0.02000000,0.08134732,-0.05416279,-0.04716947,86.89000000,2.14000000,0.03000000
229,0,-0.04000000,0.99800000,0.05700000,-0.18000000,0.09000000,0.13000000,0.08115530,-0.05406678,-0.04703079,86.89000000,2.14000000,0.03000000
230,0,-0.03500000,1.00100000,0.05500000,-0.02000000,-0.00000000,-0.06000000,0.08113521,-0.05406678,-0.04709105,86.89000000,2.14000000,0.03000000
231,0,-0.03900000,0.99600000,0.05200000,0.06000000,0.04000000,-0.03000000,0.08119503,-0.05402690,-0.04712096,86.89000000,2.14000000,0.03000000
232,0,-0.03100000,0.99900000,0.05600000,0.01000000,-0.14000000,0.01000000,0.08120590,-0.05417909,-0.04711009,86.89000000,2.14000000,0.03000000
233,0,-0.03900000,0.99500000,0.05200000,-0.11000000,0.06000000,-0.00000000,0.08109217,-0.05411705,-0.04711009,86.89000000,2.14000000,0.03000000
234,0,-0.03000000,0.99600000,0.05400000,0.01000000,0.18000000,-0.07000000,0.08164658,-0.04413759,-0.05099099,86.89000000,2.15000000,0.03000000
235,0,-0.03400000,1.00500000,0.05300000,-0.42000000,-0.02000000,0.03000000,0.08120424,-0.04415865,-0.05095940,86.89000000,2.14000000,0.03000000
236,0,-0.03200000,0.99500000,0.05200000,-0.16000000,0.22000000,-0.17000000,0.08104427,-0.04393870,-0.05112936,86.89000000,2.14000000,0.03000000
237,0,-0.03800000,0.99200000,0.05600000,0.25000000,0.04000000,0.07000000,0.08129267,-0.04389895,-0.05105981,86.89000000,2.14000000,0.03000000
238,0,-0.03700000,0.99800000,0.05000000,0.01000000,-0.10000000,-0.05000000,0.08130270,-0.04399927,-0.05110997,86.89000000,2.14000000,0.03000000
239,0,-0.04000000,0.99700000,0.05300000,0.07000000,0.19000000,-0.15000000,0.08137165,-0.04381212,-0.05125772,86.89000000,2.14000000,0.03000000
240,0,-0.04300000,0.99800000,0.05300000,-0.10000000,-0.24000000,0.10000000,0.07572768,-0.05735765,-0.04561374,86.89000000,2.15000000,0.03000000
241,0,-0.03600000,0.99600000,0.05700000,0.01000000,0.09000000,-0.06000000,0.07573808,-0.05726409,-0.04567612,86.89000000,2.15000000,0.03000000
242,0,-0.03900000,1.00400000,0.05600000,0.20000000,0.05000000,-0.05000000,0.07593541,-0.05721475,-0.04572545,86.89000000,2.14000000,0.03000000
243,0,-0.04000000,0.99900000,0.05300000,0.13000000,-0.07000000,-0.21000000,0.07606759,-0.05728592,-0.04593896,86.89000000,2.15000000,0.03000000
244,0,-0.03600000,0.99900000,0.05000000,0.13000000,-0.07000000,-0.06000000,0.07619709,-0.05735566,-0.04599874,86.90000000,2.15000000,0.03000000
245,0,-0.03700000,0.99700000,0.05500000,0.16000000,0.01000000,0.03000000,0.07635630,-0.05734571,-0.04596889,86.90000000,2.15000000,0.03000000
246,0,-0.03900000,0.99600000,0.05700000,0.03000000,0.06000000,0.03000000,0.07802230,-0.05401370,-0.04430288,86.90000000,2.15000000,0.03000000
247,0,-0.04200000,0.99800000,0.05800000,-0.03000000,-0.13000000,-0.29000000,0.07799126,-0.05414820,-0.04460292,86.90000000,2.15000000,0.03000000
248,0,-0.03700000,0.99800000,0.05500000,-0.29000000,0.21000000,-0.29000000,0.07770665,-0.05394210,-0.04488753,86.90000000,2.15000000,0.03000000
249,0,-0.03400000,0.99900000,0.05400000,0.05000000,0.03000000,-0.02000000,0.07775701,-0.05391188,-0.04490768,86.90000000,2.15000000,0.03000000
250,0,-0.04100000,0.99900000,0.04900000,0.37000000,-0.10000000,0.12000000,0.07812587,-0.05401157,-0.04478804,86.90000000,2.15000000,0.03000000
251,0,-0.03100000,0.99300000,0.05500000,-0.01000000,-0.21000000,0.03000000,0.07811592,-0.05422058,-0.04475819,86.90000000,2.15000000,0.03000000
252,0,-0.03800000,1.00100000,0.05800000,-0.16000000,0.06000000,-0.12000000,0.06919745,-0.05087615,-0.05144704,86.90000000,2.15000000,0.03000000
253,0,-0.04300000,1.00100000,0.05600000,-0.11000000,0.00000000,0.05000000,0.06908112,-0.05087615,-0.05139417,86.90000000,2.15000000,0.03000000
254,0,-0.03900000,1.00100000,0.05300000,-0.25000000,-0.04000000,-0.01000000,0.06883272,-0.05091589,-0.05140410,86.89000000,2.15000000,0.03000000
255,0,-0.03800000,0.99700000,0.05400000,-0.33000000,0.03000000,0.08000000,0.06850161,-0.05088579,-0.05132383,86.89000000,2.15000000,0.03000000
256,0,-0.03500000,0.99500000,0.05400000,-0.11000000,0.07000000,-0.30000000,0.06839219,-0.05081616,-0.05162227,86.89000000,2.15000000,0.03000000
257,0,-0.03900000,1.00000000,0.05600000,-0.22000000,-0.09000000,0.24000000,0.06817375,-0.05090552,-0.05138398,86.89000000,2.15000000,0.03000000
258,0,-0.03700000,0.99600000,0.05200000,0.14000000,-0.10000000,-0.03000000,0.07647820,-0.05683726,-0.05316350,86.89000000,2.15000000,0.03000000
259,0,-0.04400000,0.99800000,0.05300000,-0.26000000,-0.01000000,0.13000000,0.07620461,-0.05684779,-0.05302671,86.89000000,2.15000000,0.03000000
260,0,-0.03700000,0.99700000,0.05200000,-0.38000000,0.11000000,0.09000000,0.07582188,-0.05673700,-0.05293606,86.89000000,2.15000000,0.03000000
261,0,-0.03400000,1.00000000,0.04600000,0.11000000,-0.03000000,-0.12000000,0.07593270,-0.05676722,-0.05305695,86.89000000,2.15000000,0.03000000
262,0,-0.03500000,0.99700000,0.05300000,0.31000000,-0.29000000,0.21000000,0.07633088,-0.05713971,-0.05278722,86.89000000,2.15000000,0.03000000
263,0,-0.03600000,0.99900000,0.05200000,-0.10000000,-0.08000000,0.01000000,0.07622552,-0.05722401,-0.05277668,86.89000000,2.15000000,0.03000000
264,0,-0.03600000,1.00000000,0.05400000,-0.09000000,-0.01000000,0.07000000,0.07611800,-0.05723595,-0.05269306,86.89000000,2.15000000,0.03000000
265,0,-0.03600000,0.99700000,0.05200000,0.01000000,0.08000000,0.18000000,0.07666725,-0.05284197,-0.04280659,86.89000000,2.15000000,0.03000000
266,0,-0.03500000,0.99600000,0.05400000,0.16000000,-0.22000000,0.07000000,0.07683542,-0.05307320,-0.04273302,86.89000000,2.15000000,0.03000000
267,0,-0.03400000,1.00000000,0.05400000,0.01000000,0.20000000,-0.32000000,0.07684604,-0.05286084,-0.04307279,86.89000000,2.15000000,0.03000000
268,0,-0.03400000,1.00100000,0.05500000,0.24000000,-0.03000000,0.12000000,0.07716518,-0.05290073,-0.04291321,86.90000000,2.15000000,0.03000000
269,0,-0.03700000,0.99800000,0.05500000,-0.15000000,-0.19000000,0.17000000,0.07701314,-0.05309332,-0.04274090,86.90000000,2.15000000,0.03000000
270,0,-0.03600000,1.00000000,0.05200000,-0.08000000,-0.18000000,0.08000000,0.07693319,-0.05327320,-0.04266095,86.90000000,2.15000000,0.03000000
271,0,-0.04100000,0.99800000,0.05100000,0.02000000,-0.24000000,-0.11000000,0.07803747,-0.06652451,-0.04873447,86.89000000,2.15000000,0.03000000
272,0,-0.03300000,1.00000000,0.05400000,-0.23000000,0.12000000,0.06000000,0.07779710,-0.06639910,-0.04867177,86.89000000,2.15000000,0.03000000
273,0,-0.04000000,1.00100000,0.05100000,0.27000000,-0.14000000,0.12000000,0.07807322,-0.06654227,-0.04854904,86.89000000,2.15000000,0.03000000
274,0,-0.03800000,0.99500000,0.05100000,0.07000000,-0.12000000,0.01000000,0.07814334,-0.06666248,-0.04853903,86.89000000,2.14000000,0.03000000
275,0,-0.03600000,0.99600000,0.05300000,0.03000000,-0.17000000,-0.18000000,0.07817326,-0.06683200,-0.04871852,86.90000000,2.15000000,0.03000000
276,0,-0.03900000,0.99400000,0.05400000,0.17000000,0.02000000,0.02000000,0.07834282,-0.06681205,-0.04869857,86.90000000,2.15000000,0.03000000
277,0,-0.03700000,1.00000000,0.05400000,-0.07000000,-0.08000000,0.08000000,0.07439529,-0.07132351,-0.04418711,86.90000000,2.15000000,0.03000000
278,0,-0.03800000,0.99600000,0.05000000,-0.16000000,0.23000000,-0.17000000,0.07422495,-0.07107864,-0.04436810,86.90000000,2.15000000,0.03000000
279,0,-0.03900000,1.00200000,0.05500000,-0.00000000,0.08000000,0.10000000,0.07422495,-0.07099854,-0.04426798,86.90000000,2.15000000,0.03000000
280,0,-0.03800000,0.99200000,0.05300000,0.04000000,0.09000000,0.03000000,0.07426467,-0.07090916,-0.04423818,86.90000000,2.15000000,0.03000000
281,0,-0.04400000,1.00400000,0.05000000,-0.17000000,-0.01000000,0.35000000,0.07409600,-0.07091908,-0.04389093,86.90000000,2.15000000,0.03000000
282,0,-0.04000000,1.00600000,0.05600000,-0.15000000,0.18000000,-0.41000000,0.07394507,-0.07073796,-0.04430348,86.90000000,2.15000000,0.03000000
283,0,-0.03700000,0.99400000,0.05700000,0.08000000,-0.03000000,-0.01000000,0.07838494,-0.07240292,-0.04485846,86.90000000,2.15000000,0.03000000
284,0,-0.03500000,0.99400000,0.05700000,-0.10000000,-0.08000000,-0.06000000,0.07827879,-0.07248784,-0.04492216,86.90000000,2.15000000,0.03000000
285,0,-0.03900000,0.99800000,0.05200000,-0.05000000,0.16000000,-0.10000000,0.07822886,-0.07232806,-0.04502202,86.89000000,2.15000000,0.03000000
286,0,-0.03800000,1.00200000,0.05400000,0.19000000,-0.13000000,0.18000000,0.07841773,-0.07245729,-0.04484308,86.89000000,2.15000000,0.03000000
287,0,-0.03600000,0.99600000,0.05300000,-0.14000000,-0.08000000,0.08000000,0.07827843,-0.07253689,-0.04476348,86.89000000,2.15000000,0.03000000
288,0,-0.03800000,1.00000000,0.05500000,0.33000000,-0.09000000,-0.07000000,0.07860836,-0.07262688,-0.04483347,86.89000000,2.15000000,0.03000000
289,0,-0.04000000,0.99700000,0.05400000,0.07000000,0.03000000,-0.00000000,0.08250449,-0.07095711,-0.04483347,86.89000000,2.15000000,0.03000000
290,0,-0.03500000,1.00200000,0.05100000,-0.27000000,0.11000000,-0.05000000,0.08221819,-0.07084047,-0.04488649,86.89000000,2.15000000,0.03000000
291,0,-0.04200000,0.99400000,0.05500000,0.22000000,0.18000000,-0.00000000,0.08243899,-0.07065982,-0.04488649,86.89000000,2.15000000,0.03000000
292,0,-0.03300000,0.99900000,0.05600000,0.12000000,0.05000000,0.17000000,0.08255865,-0.07060996,-0.04471697,86.89000000,2.15000000,0.03000000
293,0,-0.03800000,0.99600000,0.05900000,0.05000000,0.02000000,-0.00000000,0.08260859,-0.07058998,-0.04471697,86.89000000,2.15000000,0.03000000
294,0,-0.03000000,0.99700000,0.05000000,-0.02000000,-0.13000000,-0.02000000,0.08258860,-0.07071993,-0.04473696,86.89000000,2.15000000,0.03000000
295,0,-0.03500000,0.99600000,0.05200000,-0.04000000,0.15000000,0.12000000,0.08033185,-0.06225711,-0.03796671,86.89000000,2.15000000,0.03000000
296,0,-0.04000000,0.99700000,0.05800000,-0.15000000,-0.14000000,-0.30000000,0.08017244,-0.06240590,-0.03828553,86.89000000,2.15000000,0.03000000
297,0,-0.03600000,0.99900000,0.05100000,-0.11000000,-0.15000000,0.03000000,0.08006209,-0.06255636,-0.03825543,86.89000000,2.15000000,0.03000000
298,0,-0.03600000,0.99300000,0.04700000,0.01000000,-0.12000000,0.21000000,0.08007203,-0.06267565,-0.03804668,86.89000000,2.15000000,0.02000000
299,0,-0.03600000,0.99900000,0.05700000,-0.11000000,0.09000000,0.24000000,0.07996187,-0.06258552,-0.03780633,86.89000000,2.15000000,0.03000000
300,0,-0.04200000,0.99800000,0.05800000,-0.02000000,-0.08000000,0.02000000,0.07994198,-0.06266510,-0.03778643,86.89000000,2.15000000,0.02000000
301,0,-0.03600000,0.99500000,0.06100000,0.01000000,0.16000000,0.22000000,0.08049651,-0.05379248,-0.02558658,86.89000000,2.15000000,0.02000000
302,0,-0.03600000,0.99100000,0.05500000,-0.32000000,-0.03000000,-0.01000000,0.08015835,-0.05382419,-0.02559715,86.89000000,2.15000000,0.03000000
303,0,-0.04000000,0.99900000,0.05700000,-0.11000000,-0.15000000,-0.03000000,0.08004756,-0.05397526,-0.02562736,86.89000000,2.15000000,0.02000000
304,0,-0.04200000,0.99700000,0.05400000,0.01000000,0.19000000,0.18000000,0.08005747,-0.05378689,-0.02544890,86.89000000,2.15000000,0.03000000
305,0,-0.04000000,0.99600000,0.05300000,0.03000000,0.14000000,0.11000000,0.08008752,-0.05364668,-0.02533874,86.89000000,2.15000000,0.03000000
306,0,-0.03600000,0.99900000,0.05800000,0.13000000,-0.29000000,0.01000000,0.08021755,-0.05393676,-0.02532874,86.89000000,2.15000000,0.03000000
307,0,-0.03000000,0.99500000,0.05200000,-0.11000000,-0.08000000,-0.11000000,0.07408738,-0.05839506,-0.03145890,86.89000000,2.15000000,0.02000000
308,0,-0.04100000,0.99600000,0.05100000,-0.11000000,-0.11000000,-0.01000000,0.07396985,-0.05851260,-0.03146959,86.89000000,2.15000000,0.02000000
309,0,-0.03900000,1.00200000,0.05400000,0.10000000,-0.07000000,0.08000000,0.07407055,-0.05858308,-0.03138903,86.89000000,2.15000000,0.02000000
310,0,-0.04100000,0.99700000,0.05300000,0.19000000,-0.17000000,-0.01000000,0.07426160,-0.05875402,-0.03139909,86.89000000,2.15000000,0.02000000
311,0,-0.03200000,0.99800000,0.05800000,0.16000000,-0.00000000,0.06000000,0.07442172,-0.05875402,-0.03133904,86.89000000,2.15000000,0.02000000
312,0,-0.03600000,0.99800000,0.05100000,0.18000000,-0.23000000,0.17000000,0.07460116,-0.05898331,-0.03116956,86.89000000,2.15000000,0.02000000
313,0,-0.03900000,0.99700000,0.05600000,0.03000000,-0.15000000,0.02000000,0.07628850,-0.06741998,-0.03004468,86.89000000,2.15000000,0.02000000
314,0,-0.03700000,0.99900000,0.05300000,-0.02000000,-0.27000000,0.18000000,0.07626786,-0.06769862,-0.02985892,86.89000000,2.15000000,0.02000000
315,0,-0.04000000,0.99700000,0.05400000,-0.10000000,0.19000000,-0.10000000,0.07616807,-0.06750902,-0.02995871,86.89000000,2.15000000,0.02000000
316,0,-0.03300000,0.99400000,0.05500000,0.24000000,0.13000000,-0.21000000,0.07641391,-0.06737585,-0.03017382,86.89000000,2.15000000,0.02000000
317,0,-0.03800000,1.00000000,0.05600000,0.11000000,0.09000000,-0.04000000,0.07652303,-0.06728658,-0.03021350,86.89000000,2.15000000,0.02000000
318,0,-0.03300000,0.99700000,0.05600000,-0.11000000,0.26000000,0.24000000,0.07641376,-0.06702831,-0.02997509,86.89000000,2.15000000,0.02000000
319,0,-0.03200000,0.99900000,0.05400000,-0.12000000,-0.21000000,-0.25000000,0.06974996,-0.07868995,-0.04385799,86.89000000,2.15000000,0.02000000
320,0,-0.03900000,0.99400000,0.05700000,-0.16000000,0.01000000,0.13000000,0.06958447,-0.07867960,-0.04372353,86.89000000,2.14000000,0.02000000
321,0,-0.04000000,0.99700000,0.04800000,-0.14000000,0.01000000,0.00000000,0.06944556,-0.07866968,-0.04372353,86.89000000,2.14000000,0.02000000
322,0,-0.03600000,1.00100000,0.05500000,0.16000000,0.05000000,0.02000000,0.06960454,-0.07862000,-0.04370365,86.89000000,2.14000000,0.02000000
323,0,-0.03900000,0.99900000,0.05600000,0.18000000,-0.16000000,0.12000000,0.06978712,-0.07878230,-0.04358193,86.89000000,2.14000000,0.02000000
324,0,-0.03600000,1.00200000,0.05500000,0.11000000,-0.31000000,-0.23000000,0.06989576,-0.07908846,-0.04380909,86.89000000,2.14000000,0.02000000
325,0,-0.03800000,0.99600000,0.05400000,0.18000000,-0.13000000,0.07000000,0.07993488,-0.08633894,-0.03990499,86.89000000,2.14000000,0.02000000
326,0,-0.03800000,0.99900000,0.05000000,0.06000000,0.01000000,0.27000000,0.07999790,-0.08632843,-0.03962140,86.89000000,2.14000000,0.02000000
327,0,-0.04100000,1.00300000,0.05700000,0.12000000,-0.07000000,0.12000000,0.08011741,-0.08639815,-0.03950188,86.89000000,2.14000000,0.02000000
328,0,-0.03400000,0.99700000,0.05300000,0.16000000,0.06000000,0.09000000,0.08028203,-0.08633642,-0.03940928,86.90000000,2.14000000,0.02000000
329,0,-0.04300000,1.00000000,0.05600000,0.08000000,0.20000000,-0.00000000,0.08036969,-0.08611729,-0.03940928,86.90000000,2.14000000,0.02000000
330,0,-0.04200000,0.99300000,0.05300000,0.30000000,0.09000000,-0.17000000,0.08066898,-0.08602750,-0.03957888,86.90000000,2.14000000,0.02000000
331,0,-0.03800000,0.99600000,0.05600000,-0.20000000,0.03000000,0.12000000,0.06943901,-0.08434301,-0.03284090,86.90000000,2.14000000,0.02000000
332,0,-0.03800000,1.00000000,0.05400000,-0.03000000,-0.24000000,-0.04000000,0.06940813,-0.08459005,-0.03288208,86.90000000,2.14000000,0.02000000
333,0,-0.03800000,1.00100000,0.04900000,-0.09000000,0.05000000,0.08000000,0.06931736,-0.08453962,-0.03280139,86.90000000,2.14000000,0.02000000
334,0,-0.03200000,0.99800000,0.05600000,-0.06000000,0.06000000,0.15000000,0.06925761,-0.08447988,-0.03265203,86.90000000,2.14000000,0.02000000
335,0,-0.03100000,1.00000000,0.05500000,0.16000000,-0.23000000,-0.02000000,0.06941682,-0.08470873,-0.03267193,86.90000000,2.14000000,0.02000000
336,0,-0.03600000,0.99600000,0.05100000,0.09000000,-0.23000000,0.11000000,0.06950631,-0.08493742,-0.03256255,86.90000000,2.14000000,0.02000000
337,0,-0.04100000,1.00200000,0.05500000,0.08000000,-0.12000000,-0.06000000,0.07394931,-0.09160193,-0.03589481,86.90000000,2.14000000,0.02000000
338,0,-0.03500000,1.00100000,0.05400000,-0.05000000,0.10000000,0.22000000,0.07389747,-0.09149826,-0.03566672,86.90000000,2.14000000,0.02000000
339,0,-0.03900000,1.00100000,0.05200000,0.02000000,0.07000000,0.32000000,0.07391726,-0.09142902,-0.03535022,86.90000000,2.14000000,0.02000000
340,0,-0.03900000,0.99900000,0.05300000,0.07000000,-0.06000000,0.04000000,0.07398772,-0.09148943,-0.03530995,86.90000000,2.14000000,0.02000000
341,0,-0.03000000,1.00000000,0.05000000,0.07000000,0.21000000,-0.24000000,0.07405749,-0.09128012,-0.03554916,86.90000000,2.14000000,0.02000000
342,0,-0.03700000,0.99900000,0.05400000,-0.18000000,-0.24000000,0.12000000,0.07387762,-0.09151996,-0.03542924,86.90000000,2.14000000,0.02000000
343,0,-0.03800000,1.00100000,0.05000000,0.01000000,-0.09000000,-0.02000000,0.07443529,-0.09653898,-0.03654458,86.90000000,2.14000000,0.02000000
344,0,-0.03700000,1.00000000,0.05400000,-0.14000000,-0.07000000,-0.24000000,0.07428824,-0.09661250,-0.03679666,86.90000000,2.14000000,0.02000000
345,0,-0.03400000,1.00400000,0.05400000,0.26000000,0.02000000,-0.02000000,0.07455234,-0.09659219,-0.03681698,86.90000000,2.14000000,0.02000000
346,0,-0.03600000,1.00300000,0.05700000,-0.04000000,0.13000000,-0.07000000,0.07451241,-0.09646243,-0.03688685,86.90000000,2.14000000,0.02000000
347,0,-0.03400000,1.00300000,0.05700000,0.07000000,0.28000000,-0.10000000,0.07458191,-0.09618443,-0.03698613,86.90000000,2.14000000,0.02000000
348,0,-0.03100000,0.99700000,0.04900000,0.04000000,0.03000000,-0.05000000,0.07462168,-0.09615460,-0.03703584,86.90000000,2.14000000,0.02000000
349,0,-0.04000000,0.99800000,0.05100000,0.15000000,0.03000000,0.03000000,0.08306146,-0.09446665,-0.03534788,86.90000000,2.14000000,0.02000000
350,0,-0.03700000,0.99600000,0.05300000,0.20000000,0.12000000,-0.25000000,0.08327358,-0.09433938,-0.03561303,86.90000000,2.14000000,0.03000000
351,0,-0.03400000,1.00300000,0.05300000,-0.10000000,0.01000000,0.08000000,0.08317357,-0.09432938,-0.03553302,86.90000000,2.14000000,0.02000000
352,0,-0.03400000,0.99800000,0.05300000,0.09000000,-0.13000000,0.01000000,0.08326306,-0.09445864,-0.03552308,86.90000000,2.14000000,0.02000000
353,0,-0.03600000,1.00300000,0.05200000,-0.24000000,-0.31000000,-0.12000000,0.08302494,-0.09476621,-0.03564214,86.90000000,2.14000000,0.02000000
354,0,-0.03500000,0.99700000,0.05500000,-0.17000000,0.25000000,-0.13000000,0.08285555,-0.09451709,-0.03577168,86.90000000,2.14000000,0.02000000
355,0,-0.03500000,0.99600000,0.05600000,0.13000000,0.13000000,0.04000000,0.09008612,-0.08728652,-0.03354689,86.90000000,2.14000000,0.02000000
356,0,-0.03500000,0.99800000,0.05800000,-0.28000000,-0.02000000,-0.08000000,0.08970651,-0.08731363,-0.03365535,86.90000000,2.13000000,0.02000000
357,0,-0.04200000,0.99900000,0.05600000,0.30000000,-0.11000000,-0.13000000,0.09009514,-0.08745613,-0.03382375,86.90000000,2.14000000,0.02000000
358,0,-0.04100000,1.00200000,0.05400000,-0.02000000,0.31000000,-0.14000000,0.09006932,-0.08705588,-0.03400451,86.90000000,2.14000000,0.02000000
359,0,-0.03500000,0.99800000,0.05400000,0.13000000,0.02000000,-0.13000000,0.09023658,-0.08703014,-0.03417177,86.90000000,2.14000000,0.02000000
360,0,-0.03800000,1.00100000,0.05300000,0.06000000,-0.04000000,0.18000000,0.09031642,-0.08708337,-0.03393224,86.90000000,2.14000000,0.02000000
361,0,-0.03500000,0.99500000,0.05000000,0.04000000,-0.03000000,-0.05000000,0.09248187,-0.08870746,-0.03663905,86.90000000,2.13000000,0.02000000
362,0,-0.03900000,0.99900000,0.05100000,-0.04000000,0.22000000,-0.02000000,0.09242676,-0.08840437,-0.03666660,86.90000000,2.13000000,0.02000000
363,0,-0.04000000,0.99800000,0.05400000,0.13000000,0.09000000,-0.01000000,0.09259486,-0.08828799,-0.03667953,86.90000000,2.13000000,0.02000000
364,0,-0.03700000,0.99600000,0.05700000,-0.07000000,0.07000000,0.15000000,0.09250187,-0.08819501,-0.03648028,86.90000000,2.14000000,0.02000000
365,0,-0.03800000,0.99900000,0.05500000,-0.20000000,-0.03000000,0.03000000,0.09223816,-0.08823457,-0.03644073,86.90000000,2.14000000,0.02000000
366,0,-0.03700000,0.99800000,0.05100000,0.13000000,0.06000000,-0.06000000,0.09242383,-0.08814887,-0.03652642,86.90000000,2.14000000,0.02000000
367,0,-0.03800000,0.99700000,0.05300000,-0.04000000,-0.17000000,-0.19000000,0.09023286,-0.09746048,-0.04693351,86.90000000,2.14000000,0.02000000
368,0,-0.04100000,0.99400000,0.05200000,0.07000000,0.04000000,-0.17000000,0.09033045,-0.09740471,-0.04717051,86.90000000,2.14000000,0.02000000
369,0,-0.03600000,1.00100000,0.05300000,-0.12000000,0.11000000,0.03000000,0.09016725,-0.09725511,-0.04712971,86.90000000,2.14000000,0.02000000
370,0,-0.04100000,0.99800000,0.05100000,0.02000000,-0.01000000,0.03000000,0.09019314,-0.09726805,-0.04709088,86.90000000,2.14000000,0.02000000
371,0,-0.03900000,0.99600000,0.05200000,-0.01000000,-0.20000000,0.12000000,0.09017967,-0.09753744,-0.04692925,86.91000000,2.14000000,0.02000000
372,0,-0.03800000,1.00200000,0.05600000,-0.06000000,-0.08000000,-0.02000000,0.09007152,-0.09768164,-0.04696530,86.90000000,2.14000000,0.02000000
373,0,-0.04100000,1.00300000,0.05700000,0.24000000,0.04000000,0.04000000,0.10287674,-0.09554744,-0.04483109,86.90000000,2.14000000,0.02000000
374,0,-0.03200000,0.99500000,0.05700000,-0.27000000,-0.17000000,-0.02000000,0.10242146,-0.09583409,-0.04486482,86.90000000,2.14000000,0.02000000
375,0,-0.03800000,0.99700000,0.05300000,0.10000000,-0.09000000,0.09000000,0.10255787,-0.09595686,-0.04474205,86.90000000,2.14000000,0.02000000
376,0,-0.03300000,0.99700000,0.06000000,-0.07000000,0.15000000,-0.10000000,0.10246547,-0.09575886,-0.04487405,86.90000000,2.14000000,0.02000000
377,0,-0.03400000,0.99800000,0.05200000,-0.25000000,-0.36000000,-0.15000000,0.10214156,-0.09622530,-0.04506840,86.90000000,2.14000000,0.02000000
378,0,-0.03900000,1.00100000,0.05300000,-0.03000000,0.03000000,-0.12000000,0.10210166,-0.09618541,-0.04522797,86.90000000,2.14000000,0.02000000
379,0,-0.03900000,0.99700000,0.05600000,0.10000000,0.17000000,-0.06000000,0.10754267,-0.08693570,-0.04849257,86.90000000,2.14000000,0.02000000
380,0,-0.04000000,0.99800000,0.05100000,0.08000000,0.04000000,0.09000000,0.10765117,-0.08688145,-0.04837051,86.90000000,2.14000000,0.02000000
381,0,-0.03800000,0.99800000,0.05200000,-0.12000000,-0.13000000,-0.21000000,0.10749557,-0.08705001,-0.04864281,86.90000000,2.14000000,0.02000000
382,0,-0.03900000,0.99600000,0.05300000,0.02000000,-0.16000000,0.19000000,0.10752190,-0.08726060,-0.04839273,86.91000000,2.13000000,0.02000000
383,0,-0.04100000,0.99700000,0.05400000,-0.22000000,0.00000000,-0.19000000,0.10722709,-0.08726060,-0.04864734,86.91000000,2.14000000,0.02000000
384,0,-0.03500000,0.99900000,0.05100000,-0.06000000,-0.15000000,-0.04000000,0.10714545,-0.08746471,-0.04870177,86.91000000,2.14000000,0.02000000
385,0,-0.04000000,1.00000000,0.05200000,0.13000000,-0.07000000,0.00000000,0.10732706,-0.08756250,-0.04870177,86.91000000,2.14000000,0.02000000
386,0,-0.03600000,0.99600000,0.05600000,0.11000000,0.02000000,-0.10000000,0.11358898,-0.08642397,-0.05439442,86.91000000,2.14000000,0.02000000
387,0,-0.03500000,1.00100000,0.05400000,-0.07000000,-0.17000000,0.17000000,0.11349448,-0.08665347,-0.05416492,86.91000000,2.14000000,0.02000000
388,0,-0.03100000,0.99800000,0.05200000,-0.01000000,-0.08000000,0.02000000,0.11348152,-0.08675720,-0.05413899,86.91000000,2.14000000,0.02000000
389,0,-0.03800000,0.99200000,0.05300000,-0.18000000,-0.03000000,-0.12000000,0.11324692,-0.08679630,-0.05429538,86.91000000,2.13000000,0.02000000
390,0,-0.03700000,0.99500000,0.05500000,-0.02000000,0.09000000,0.18000000,0.11322085,-0.08667896,-0.05406070,86.91000000,2.13000000,0.02000000
391,0,-0.03700000,0.99400000,0.05400000,0.29000000,0.04000000,-0.24000000,0.11360240,-0.08662633,-0.05437647,86.91000000,2.13000000,0.02000000
392,0,-0.03700000,1.00000000,0.05400000,0.13000000,-0.03000000,0.15000000,0.12061818,-0.08824536,-0.04628133,86.91000000,2.13000000,0.02000000
393,0,-0.03800000,0.99600000,0.05700000,-0.22000000,0.24000000,-0.16000000,0.12024224,-0.08783524,-0.04655475,86.91000000,2.14000000,0.02000000
394,0,-0.03100000,0.99700000,0.05500000,0.06000000,-0.20000000,-0.10000000,0.12032275,-0.08810362,-0.04668894,86.91000000,2.14000000,0.02000000
395,0,-0.03600000,0.99800000,0.05200000,0.00000000,-0.01000000,0.05000000,0.12032275,-0.08811743,-0.04661991,86.91000000,2.14000000,0.02000000
396,0,-0.03800000,1.00100000,0.05700000,-0.08000000,0.07000000,0.05000000,0.12021891,-0.08802656,-0.04655501,86.91000000,2.14000000,0.02000000
397,0,-0.03600000,0.99700000,0.05400000,0.11000000,-0.04000000,0.09000000,0.12037071,-0.08808177,-0.04643081,86.91000000,2.14000000,0.02000000
398,0,-0.03800000,0.99800000,0.05400000,-0.01000000,0.11000000,-0.08000000,0.11983650,-0.08220544,-0.05070450,86.91000000,2.14000000,0.02000000
399,0,-0.03400000,1.00100000,0.05400000,0.05000000,0.16000000,-0.23000000,0.11990443,-0.08198806,-0.05101698,86.91000000,2.14000000,0.02000000
400,0,-0.03500000,0.99300000,0.05400000,0.22000000,0.17000000,0.09000000,0.12018780,-0.08176910,-0.05090105,86.91000000,2.14000000,0.02000000
401,0,-0.03900000,0.99700000,0.05600000,0.11000000,0.09000000,-0.06000000,0.12033360,-0.08164980,-0.05098058,86.91000000,2.14000000,0.02000000
402,0,-0.04500000,0.99500000,0.05600000,0.19000000,-0.01000000,0.06000000,0.12058644,-0.08166311,-0.05090074,86.91000000,2.14000000,0.02000000
403,0,-0.04000000,0.99700000,0.04900000,0.06000000,0.00000000,-0.10000000,0.12066799,-0.08166311,-0.05103665,86.91000000,2.14000000,0.02000000
404,0,-0.03600000,0.99600000,0.05300000,0.08000000,-0.04000000,-0.20000000,0.12504584,-0.08385204,-0.06198127,86.91000000,2.14000000,0.02000000
405,0,-0.03500000,0.99600000,0.05400000,-0.01000000,0.13000000,-0.00000000,0.12503099,-0.08365899,-0.06198127,86.91000000,2.14000000,0.02000000
406,0,-0.03700000,0.99200000,0.05500000,0.15000000,0.09000000,0.00000000,0.12524622,-0.08352985,-0.06198127,86.91000000,2.14000000,0.02000000
407,0,-0.04200000,0.99700000,0.05300000,0.18000000,-0.37000000,-0.17000000,0.12549906,-0.08404956,-0.06222006,86.91000000,2.14000000,0.02000000
408,0,-0.03600000,0.99900000,0.05700000,-0.19000000,0.06000000,-0.12000000,0.12523616,-0.08396654,-0.06238610,86.91000000,2.13000000,0.02000000
409,0,-0.03900000,0.99600000,0.05300000,-0.10000000,0.00000000,0.06000000,0.12507193,-0.08396654,-0.06228756,86.91000000,2.13000000,0.02000000
410,0,-0.03600000,0.99900000,0.05400000,-0.05000000,-0.06000000,-0.23000000,0.12240470,-0.08716722,-0.07455681,86.91000000,2.13000000,0.02000000
411,0,-0.04000000,0.99600000,0.05000000,-0.04000000,-0.15000000,-0.02000000,0.12234853,-0.08737784,-0.07458490,86.91000000,2.13000000,0.02000000
412,0,-0.03600000,1.00200000,0.05600000,0.00000000,-0.05000000,-0.05000000,0.12234853,-0.08745643,-0.07466348,86.91000000,2.13000000,0.02000000
413,0,-0.03400000,0.99600000,0.05500000,0.01000000,0.08000000,-0.16000000,0.12236425,-0.08733071,-0.07491493,86.91000000,2.13000000,0.02000000
414,0,-0.03800000,1.00200000,0.04700000,0.05000000,-0.17000000,0.01000000,0.12243597,-0.08757456,-0.07490058,86.91000000,2.13000000,0.02000000
415,0,-0.03000000,0.99700000,0.05500000,0.13000000,0.11000000,0.00000000,0.12261811,-0.08742044,-0.07490058,86.91000000,2.13000000,0.02000000
416,0,-0.03400000,0.99700000,0.05500000,-0.05000000,0.03000000,0.01000000,0.11995351,-0.08582169,-0.07436766,86.91000000,2.13000000,0.02000000
417,0,-0.04000000,0.99500000,0.05400000,-0.06000000,-0.03000000,0.09000000,0.11987338,-0.08586175,-0.07424747,86.91000000,2.13000000,0.02000000
418,0,-0.04200000,0.99100000,0.05700000,0.23000000,0.01000000,0.20000000,0.12022535,-0.08584645,-0.07394141,86.91000000,2.13000000,0.02000000
419,0,-0.03600000,0.99700000,0.05200000,-0.04000000,0.06000000,-0.04000000,0.12016979,-0.08576312,-0.07399697,86.91000000,2.13000000,0.02000000
420,0,-0.04100000,0.99900000,0.05600000,0.00000000,-0.13000000,0.12000000,0.12016979,-0.08593372,-0.07383949,86.91000000,2.13000000,0.02000000
421,0,-0.03800000,0.99500000,0.05400000,-0.03000000,0.09000000,0.04000000,0.12013043,-0.08581563,-0.07378700,86.91000000,2.13000000,0.02000000
422,0,-0.03600000,0.99400000,0.05400000,0.12000000,-0.12000000,0.16000000,0.12665638,-0.09234158,-0.06508574,86.91000000,2.13000000,0.02000000
423,0,-0.03200000,1.00100000,0.05500000,-0.01000000,0.15000000,-0.13000000,0.12664304,-0.09214151,-0.06525913,86.91000000,2.13000000,0.03000000
424,0,-0.03600000,0.99900000,0.05200000,-0.05000000,-0.14000000,0.07000000,0.12657571,-0.09233001,-0.06516488,86.91000000,2.13000000,0.02000000
425,0,-0.04100000,0.99300000,0.05400000,-0.29000000,-0.19000000,-0.08000000,0.12620274,-0.09257438,-0.06526777,86.91000000,2.13000000,0.02000000
426,0,-0.03500000,0.99300000,0.05200000,-0.12000000,-0.02000000,-0.02000000,0.12604648,-0.09260042,-0.06529382,86.91000000,2.13000000,0.02000000
427,0,-0.03200000,0.99800000,0.05200000,-0.08000000,-0.24000000,0.18000000,0.12594094,-0.09291704,-0.06505635,86.91000000,2.13000000,0.02000000
428,0,-0.03900000,1.00200000,0.05700000,0.03000000,-0.13000000,0.09000000,0.12756380,-0.09994944,-0.06018776,86.91000000,2.13000000,0.02000000
429,0,-0.03800000,0.99800000,0.05700000,0.05000000,0.04000000,0.16000000,0.12763455,-0.09989285,-0.05996138,86.91000000,2.13000000,0.02000000
430,0,-0.03800000,1.00200000,0.05500000,0.05000000,-0.30000000,0.08000000,0.12770119,-0.10029270,-0.05985475,86.91000000,2.13000000,0.02000000
431,0,-0.03700000,0.99300000,0.05800000,0.00000000,0.03000000,-0.36000000,0.12770119,-0.10025384,-0.06032111,86.91000000,2.13000000,0.02000000
432,0,-0.03400000,0.99500000,0.05700000,-0.06000000,-0.08000000,0.11000000,0.12762139,-0.10036024,-0.06017481,86.91000000,2.13000000,0.02000000
433,0,-0.03500000,0.99800000,0.05000000,-0.06000000,0.00000000,-0.12000000,0.12754107,-0.10036024,-0.06033544,86.91000000,2.13000000,0.02000000
434,0,-0.04300000,0.99600000,0.05000000,0.03000000,-0.12000000,0.15000000,0.12918406,-0.10693217,-0.05212053,86.91000000,2.13000000,0.02000000
435,0,-0.03900000,1.00400000,0.05900000,-0.14000000,0.22000000,0.06000000,0.12898447,-0.10661853,-0.05203500,86.91000000,2.13000000,0.02000000
436,0,-0.03300000,0.99600000,0.05600000,-0.12000000,-0.07000000,-0.30000000,0.12882785,-0.10670990,-0.05242656,86.91000000,2.13000000,0.02000000
437,0,-0.03500000,1.00000000,0.05400000,-0.07000000,-0.06000000,0.02000000,0.12873269,-0.10679146,-0.05239937,86.90000000,2.13000000,0.02000000
438,0,-0.03800000,0.99700000,0.05400000,0.08000000,0.14000000,0.12000000,0.12884363,-0.10659731,-0.05223296,86.90000000,2.13000000,0.02000000
439,0,-0.03500000,0.99900000,0.05300000,-0.14000000,0.15000000,0.18000000,0.12864338,-0.10638276,-0.05197549,86.91000000,2.13000000,0.02000000
440,0,-0.03600000,0.99500000,0.05800000,0.00000000,0.05000000,-0.10000000,0.12864338,-0.10368959,-0.05736183,86.90000000,2.13000000,0.02000000
441,0,-0.03700000,0.99800000,0.05400000,0.01000000,-0.16000000,-0.09000000,0.12866050,-0.10396350,-0.05751591,86.90000000,2.13000000,0.02000000
442,0,-0.03900000,0.99600000,0.05600000,-0.14000000,-0.07000000,0.02000000,0.12841665,-0.10408542,-0.05748107,86.90000000,2.13000000,0.02000000
443,0,-0.03800000,1.00200000,0.05300000,0.04000000,0.05000000,-0.10000000,0.12848038,-0.10400576,-0.05764039,86.90000000,2.13000000,0.02000000
444,0,-0.03000000,0.99500000,0.05300000,-0.10000000,0.08000000,-0.17000000,0.12834102,-0.10389427,-0.05787732,86.90000000,2.13000000,0.02000000
445,0,-0.03300000,0.99900000,0.05500000,0.16000000,-0.15000000,-0.03000000,0.12857980,-0.10411812,-0.05792209,86.90000000,2.13000000,0.02000000
446,0,-0.03900000,0.99700000,0.05600000,0.00000000,-0.03000000,-0.06000000,0.12857980,-0.10568778,-0.06106141,86.90000000,2.13000000,0.02000000
447,0,-0.03200000,1.00000000,0.04700000,-0.18000000,0.09000000,0.21000000,0.12833683,-0.10556630,-0.06077795,86.91000000,2.13000000,0.02000000
448,0,-0.04100000,1.00200000,0.05300000,-0.12000000,0.21000000,0.02000000,0.12818221,-0.10529571,-0.06075218,86.90000000,2.13000000,0.02000000
449,0,-0.03900000,0.99700000,0.05700000,-0.12000000,-0.00000000,-0.21000000,0.12799234,-0.10529571,-0.06108445,86.90000000,2.13000000,0.02000000
450,0,-0.03600000,0.99300000,0.05700000,-0.13000000,0.27000000,0.21000000,0.12781736,-0.10493230,-0.06080180,86.90000000,2.13000000,0.02000000
451,0,-0.03600000,0.99900000,0.05100000,0.20000000,0.12000000,-0.01000000,0.12810864,-0.10475754,-0.06081636,86.90000000,2.13000000,0.02000000
452,0,-0.04200000,0.99800000,0.05100000,-0.22000000,-0.03000000,-0.11000000,0.11610962,-0.10639377,-0.06681587,86.90000000,2.13000000,0.02000000
453,0,-0.03900000,0.99600000,0.05300000,-0.16000000,-0.22000000,0.04000000,0.11589122,-0.10669408,-0.06676127,86.90000000,2.13000000,0.02000000
454,0,-0.03600000,0.99600000,0.05500000,0.02000000,0.00000000,-0.12000000,0.11591755,-0.10669408,-0.06691927,86.90000000,2.13000000,0.02000000
455,0,-0.03700000,0.99800000,0.05600000,0.00000000,-0.02000000,-0.07000000,0.11591755,-0.10672278,-0.06701974,86.90000000,2.13000000,0.02000000
456,0,-0.04100000,0.99700000,0.05400000,-0.12000000,-0.02000000,-0.20000000,0.11574745,-0.10675113,-0.06730324,86.90000000,2.13000000,0.02000000
457,0,-0.03400000,0.99700000,0.05300000,0.21000000,-0.03000000,0.13000000,0.11602990,-0.10679148,-0.06712839,86.90000000,2.13000000,0.02000000
458,0,-0.03700000,0.99900000,0.04800000,0.03000000,0.02000000,0.12000000,0.11764157,-0.10571704,-0.06068172,86.90000000,2.13000000,0.02000000
459,0,-0.03200000,1.00100000,0.05300000,-0.06000000,-0.19000000,-0.13000000,0.11755772,-0.10598256,-0.06086339,86.90000000,2.13000000,0.02000000
460,0,-0.03800000,1.00200000,0.05400000,-0.04000000,-0.21000000,-0.18000000,0.11750147,-0.10627788,-0.06111653,86.90000000,2.13000000,0.02000000
461,0,-0.03700000,0.99900000,0.05700000,-0.17000000,-0.13000000,-0.02000000,0.11727691,-0.10644960,-0.06114294,86.90000000,2.13000000,0.02000000
462,0,-0.03900000,0.99700000,0.05600000,0.21000000,-0.03000000,-0.22000000,0.11754810,-0.10648835,-0.06142705,86.90000000,2.13000000,0.02000000
463,0,-0.03800000,1.00100000,0.04900000,-0.13000000,-0.04000000,-0.01000000,0.11737464,-0.10654172,-0.06144039,86.90000000,2.13000000,0.02000000
464,0,-0.04200000,1.00200000,0.05600000,-0.13000000,0.02000000,-0.21000000,0.11037141,-0.10546430,-0.07275330,86.90000000,2.13000000,0.02000000
465,0,-0.04000000,0.99800000,0.05500000,0.03000000,-0.15000000,-0.04000000,0.11041258,-0.10567016,-0.07280820,86.90000000,2.13000000,0.02000000
466,0,-0.03700000,1.00100000,0.05400000,-0.14000000,-0.08000000,-0.12000000,0.11023065,-0.10577412,-0.07296414,86.90000000,2.13000000,0.02000000
467,0,-0.03500000,0.99700000,0.05200000,-0.21000000,-0.06000000,0.06000000,0.10995951,-0.10585159,-0.07288667,86.90000000,2.13000000,0.02000000
468,0,-0.03900000,0.99400000,0.05100000,0.23000000,0.05000000,-0.23000000,0.11025363,-0.10578765,-0.07318078,86.90000000,2.13000000,0.02000000
469,0,-0.03700000,1.00200000,0.05300000,0.14000000,0.00000000,0.12000000,0.11043285,-0.10578765,-0.07302716,86.90000000,2.13000000,0.02000000
470,0,-0.03700000,0.99800000,0.05100000,-0.10000000,0.05000000,0.10000000,0.10500154,-0.10307200,-0.06759586,86.90000000,2.13000000,0.02000000
471,0,-0.03900000,0.99500000,0.05300000,0.02000000,0.17000000,-0.01000000,0.10503912,-0.10275264,-0.06761464,86.90000000,2.13000000,0.02000000
472,0,-0.04000000,0.99400000,0.05000000,0.09000000,-0.36000000,0.09000000,0.10520429,-0.10341331,-0.06744947,86.90000000,2.13000000,0.02000000
473,0,-0.03700000,1.00100000,0.05200000,-0.03000000,0.18000000,-0.15000000,0.10515806,-0.10313593,-0.06768062,86.90000000,2.13000000,0.02000000
474,0,-0.03300000,1.00000000,0.05200000,0.11000000,-0.27000000,0.04000000,0.10533352,-0.10356662,-0.06761682,86.90000000,2.13000000,0.02000000
475,0,-0.03400000,0.99500000,0.05400000,-0.24000000,-0.03000000,-0.16000000,0.10498577,-0.10361009,-0.06784865,86.90000000,2.13000000,0.02000000
476,0,-0.03900000,0.99200000,0.05500000,-0.09000000,-0.09000000,-0.00000000,0.10023185,-0.10836400,-0.06784865,86.90000000,2.13000000,0.02000000
477,0,-0.03700000,0.99800000,0.05500000,0.18000000,-0.09000000,-0.01000000,0.10050194,-0.10849904,-0.06786366,86.90000000,2.13000000,0.02000000
478,0,-0.04300000,0.99200000,0.05500000,-0.26000000,0.05000000,-0.07000000,0.10006204,-0.10841445,-0.06798209,86.90000000,2.13000000,0.02000000
479,0,-0.03600000,0.99400000,0.05300000,-0.08000000,0.07000000,0.30000000,0.09994501,-0.10831205,-0.06754325,86.90000000,2.13000000,0.02000000
480,0,-0.03600000,0.99900000,0.05300000,0.07000000,-0.15000000,0.18000000,0.10004103,-0.10851781,-0.06729634,86.90000000,2.13000000,0.02000000
481,0,-0.03500000,0.99300000,0.05700000,0.22000000,0.09000000,0.18000000,0.10049188,-0.10833337,-0.06692747,86.90000000,2.13000000,0.02000000
482,0,-0.03200000,0.99900000,0.05600000,0.09000000,0.25000000,0.18000000,0.10521496,-0.09521371,-0.05748131,86.90000000,2.13000000,0.02000000
483,0,-0.03600000,0.99900000,0.05500000,0.15000000,0.04000000,0.16000000,0.10542469,-0.09515778,-0.05725760,86.90000000,2.13000000,0.02000000
484,0,-0.03200000,1.00200000,0.04900000,0.10000000,0.12000000,-0.01000000,0.10559872,-0.09494894,-0.05727500,86.90000000,2.13000000,0.02000000
485,0,-0.03500000,1.00100000,0.05300000,0.10000000,0.19000000,-0.23000000,0.10575590,-0.09465031,-0.05763651,86.90000000,2.13000000,0.02000000
486,0,-0.04000000,0.99800000,0.05400000,-0.07000000,-0.02000000,0.21000000,0.10564888,-0.09468088,-0.05731545,86.90000000,2.14000000,0.02000000
487,0,-0.03600000,0.99700000,0.05400000,-0.09000000,-0.00000000,0.00000000,0.10545534,-0.09468088,-0.05731545,86.90000000,2.14000000,0.02000000
488,0,-0.04000000,0.99800000,0.05400000,-0.01000000,-0.21000000,0.13000000,0.10492275,-0.10586537,-0.05039172,86.90000000,2.14000000,0.02000000
489,0,-0.03700000,0.99600000,0.05100000,0.03000000,0.01000000,-0.07000000,0.10496827,-0.10585020,-0.05049794,86.90000000,2.14000000,0.02000000
490,0,-0.04400000,1.00200000,0.05400000,-0.03000000,0.14000000,0.11000000,0.10491611,-0.10560679,-0.05030668,86.90000000,2.14000000,0.02000000
491,0,-0.03800000,0.99700000,0.05700000,-0.10000000,0.25000000,-0.00000000,0.10475443,-0.10520258,-0.05030668,86.90000000,2.14000000,0.02000000
492,0,-0.03600000,0.99800000,0.05600000,0.24000000,0.16000000,-0.09000000,0.10529295,-0.10484357,-0.05050863,86.90000000,2.14000000,0.02000000
493,0,-0.04000000,1.00600000,0.05600000,0.04000000,-0.23000000,-0.04000000,0.10536632,-0.10526539,-0.05058199,86.90000000,2.14000000,0.02000000
494,0,-0.03900000,0.99800000,0.05200000,-0.01000000,0.02000000,-0.06000000,0.10485028,-0.10423332,-0.05367820,86.90000000,2.14000000,0.02000000
495,0,-0.04300000,1.00000000,0.05300000,0.24000000,0.06000000,0.22000000,0.10522069,-0.10414072,-0.05333865,86.89000000,2.14000000,0.02000000
496,0,-0.04200000,0.99600000,0.05200000,-0.16000000,0.17000000,-0.07000000,0.10501209,-0.10391908,-0.05342992,86.90000000,2.14000000,0.02000000
497,0,-0.03700000,0.99600000,0.05500000,-0.11000000,-0.26000000,0.33000000,0.10487271,-0.10424851,-0.05301179,86.90000000,2.14000000,0.02000000
498,0,-0.03800000,0.99700000,0.05300000,-0.09000000,0.15000000,-0.24000000,0.10476243,-0.10406471,-0.05330587,86.90000000,2.14000000,0.02000000
499,0,-0.03600000,0.99600000,0.05400000,0.24000000,-0.33000000,-0.12000000,0.10522417,-0.10469960,-0.05353674,86.90000000,2.14000000,0.02000000
500,0,-0.03800000,1.00000000,0.05500000,-0.18000000,0.01000000,-0.28000000,0.09558403,-0.10416404,-0.06853250,86.89000000,2.14000000,0.02000000
501,0,-0.03600000,0.99700000,0.05400000,0.10000000,0.15000000,0.07000000,0.09576410,-0.10389394,-0.06840646,86.89000000,2.14000000,0.02000000
502,0,-0.03600000,1.00100000,0.05600000,0.22000000,-0.16000000,-0.13000000,0.09604401,-0.10409751,-0.06857186,86.90000000,2.14000000,0.02000000
503,0,-0.04000000,1.00100000,0.05300000,-0.17000000,-0.07000000,-0.04000000,0.09583416,-0.10418392,-0.06862123,86.90000000,2.14000000,0.02000000
504,0,-0.03900000,0.99600000,0.05100000,0.19000000,0.00000000,0.13000000,0.09606629,-0.10418392,-0.06846240,86.90000000,2.14000000,0.02000000
505,0,-0.03900000,0.99900000,0.05600000,-0.18000000,-0.04000000,-0.04000000,0.09583354,-0.10423564,-0.06851413,86.90000000,2.14000000,0.02000000
506,0,-0.03400000,0.99500000,0.05800000,-0.04000000,0.14000000,0.06000000,0.09352406,-0.09615246,-0.06504991,86.90000000,2.14000000,0.02000000
507,0,-0.03400000,1.00000000,0.05500000,0.16000000,0.17000000,0.22000000,0.09376544,-0.09589600,-0.06471802,86.90000000,2.14000000,0.02000000
508,0,-0.04000000,1.00000000,0.05600000,0.16000000,0.17000000,0.28000000,0.09398152,-0.09566642,-0.06433988,86.90000000,2.14000000,0.03000000
509,0,-0.03700000,0.99500000,0.05700000,-0.18000000,-0.19000000,0.18000000,0.09375186,-0.09590884,-0.06411022,86.90000000,2.14000000,0.02000000
510,0,-0.03900000,0.99300000,0.04900000,0.09000000,0.09000000,-0.11000000,0.09386656,-0.09579414,-0.06425041,86.90000000,2.14000000,0.02000000
511,0,-0.03800000,0.99800000,0.05200000,-0.05000000,-0.06000000,-0.06000000,0.09380312,-0.09587026,-0.06432653,86.90000000,2.14000000,0.03000000
512,0,-0.03800000,0.99700000,0.05700000,0.10000000,-0.10000000,0.03000000,0.09392952,-0.09599665,-0.06428862,86.90000000,2.14000000,0.03000000
513,0,-0.03800000,0.99800000,0.05300000,0.01000000,-0.16000000,-0.04000000,0.09446331,-0.10453728,-0.06642377,86.90000000,2.14000000,0.03000000
514,0,-0.03400000,0.99500000,0.05600000,0.30000000,-0.13000000,-0.16000000,0.09485115,-0.10470535,-0.06663062,86.90000000,2.14000000,0.02000000
515,0,-0.04000000,0.99900000,0.05400000,-0.03000000,-0.13000000,0.06000000,0.09481338,-0.10486904,-0.06655507,86.90000000,2.14000000,0.02000000
516,0,-0.03900000,0.99800000,0.05100000,0.03000000,0.23000000,0.10000000,0.09485043,-0.10458497,-0.06643156,86.90000000,2.14000000,0.03000000
517,0,-0.03100000,0.99800000,0.05500000,0.06000000,0.38000000,0.13000000,0.09492455,-0.10411553,-0.06627096,86.90000000,2.14000000,0.03000000
518,0,-0.03400000,0.99400000,0.05900000,0.09000000,0.11000000,0.04000000,0.09503622,-0.10397904,-0.06622133,86.90000000,2.14000000,0.03000000
519,0,-0.03600000,0.99600000,0.05500000,0.06000000,0.31000000,-0.18000000,0.09829432,-0.08714555,-0.07599562,86.90000000,2.14000000,0.03000000
520,0,-0.03300000,0.99800000,0.05700000,0.15000000,0.05000000,0.02000000,0.09848731,-0.08708122,-0.07596989,86.90000000,2.14000000,0.03000000
521,0,-0.03800000,0.99400000,0.05500000,-0.04000000,0.21000000,-0.07000000,0.09843760,-0.08682024,-0.07605688,86.90000000,2.14000000,0.03000000
522,0,-0.03500000,0.99700000,0.05700000,0.19000000,0.15000000,0.01000000,0.09866978,-0.08663694,-0.07604466,86.90000000,2.14000000,0.03000000
523,0,-0.03400000,0.99700000,0.05100000,-0.12000000,0.12000000,0.03000000,0.09852337,-0.08649053,-0.07600806,86.90000000,2.14000000,0.03000000
524,0,-0.03700000,0.99600000,0.05600000,0.06000000,0.19000000,-0.05000000,0.09859758,-0.08625554,-0.07606989,86.90000000,2.14000000,0.03000000
525,0,-0.03800000,0.99900000,0.05500000,-0.17000000,0.18000000,0.15000000,0.08918846,-0.07629294,-0.06776773,86.90000000,2.14000000,0.03000000
526,0,-0.03700000,1.00100000,0.05700000,0.00000000,0.05000000,-0.00000000,0.08918846,-0.07622471,-0.06776773,86.90000000,2.14000000,0.03000000
527,0,-0.03500000,0.99700000,0.05500000,0.05000000,-0.03000000,-0.00000000,0.08925442,-0.07626429,-0.06776773,86.90000000,2.14000000,0.03000000
528,0,-0.04100000,1.00000000,0.05300000,-0.01000000,-0.00000000,0.03000000,0.08924088,-0.07626429,-0.06772713,86.90000000,2.14000000,0.03000000
529,0,-0.03700000,0.99400000,0.05900000,-0.06000000,-0.09000000,-0.14000000,0.08915789,-0.07638877,-0.06792077,86.90000000,2.13000000,0.03000000
530,0,-0.04400000,0.99400000,0.05500000,0.06000000,0.23000000,0.17000000,0.08923978,-0.07607487,-0.06768875,86.90000000,2.14000000,0.03000000
531,0,-0.03400000,1.00100000,0.05900000,-0.10000000,0.04000000,-0.04000000,0.08383769,-0.07391403,-0.06984959,86.90000000,2.14000000,0.03000000
532,0,-0.03900000,0.99900000,0.05800000,-0.11000000,0.02000000,-0.22000000,0.08367880,-0.07388514,-0.07016737,86.90000000,2.14000000,0.03000000
533,0,-0.04000000,0.99500000,0.05800000,-0.00000000,0.36000000,-0.18000000,0.08367880,-0.07338334,-0.07041827,86.90000000,2.14000000,0.03000000
534,0,-0.03800000,0.99800000,0.05400000,-0.08000000,0.12000000,0.04000000,0.08357011,-0.07322030,-0.07036393,86.89000000,2.14000000,0.03000000
535,0,-0.03700000,1.00100000,0.05500000,-0.06000000,0.27000000,-0.12000000,0.08348813,-0.07285142,-0.07052787,86.89000000,2.14000000,0.03000000
536,0,-0.04000000,0.99700000,0.05200000,0.19000000,-0.12000000,0.20000000,0.08375465,-0.07301974,-0.07024733,86.90000000,2.14000000,0.03000000
537,0,-0.03700000,0.99600000,0.04800000,-0.15000000,0.02000000,-0.03000000,0.07574720,-0.07195209,-0.07184882,86.90000000,2.14000000,0.03000000
538,0,-0.04300000,0.99300000,0.05500000,0.19000000,0.36000000,0.15000000,0.07595492,-0.07155851,-0.07168483,86.90000000,2.14000000,0.03000000
539,0,-0.03900000,0.99600000,0.05700000,-0.22000000,-0.13000000,0.01000000,0.07572694,-0.07169323,-0.07167447,86.90000000,2.14000000,0.03000000
540,0,-0.03700000,1.00000000,0.05100000,0.08000000,-0.12000000,-0.00000000,0.07580866,-0.07181581,-0.07167447,86.90000000,2.14000000,0.03000000
541,0,-0.04000000,1.00000000,0.05800000,-0.11000000,-0.08000000,-0.05000000,0.07569913,-0.07189547,-0.07172426,86.90000000,2.14000000,0.03000000
542,0,-0.03800000,0.99700000,0.05300000,-0.11000000,-0.02000000,-0.04000000,0.07558724,-0.07191581,-0.07176494,86.90000000,2.14000000,0.03000000
543,0,-0.04000000,0.99300000,0.05900000,-0.01000000,0.02000000,0.04000000,0.07502532,-0.07079197,-0.06951725,86.90000000,2.14000000,0.03000000
544,0,-0.03400000,0.99400000,0.05300000,-0.19000000,0.28000000,0.03000000,0.07482263,-0.07049327,-0.06948525,86.89000000,2.14000000,0.03000000
545,0,-0.03500000,0.99400000,0.05200000,0.05000000,0.17000000,-0.04000000,0.07487386,-0.07031909,-0.06952623,86.89000000,2.14000000,0.03000000
546,0,-0.03800000,0.99800000,0.05500000,0.13000000,0.02000000,-0.08000000,0.07500590,-0.07029877,-0.06960749,86.89000000,2.14000000,0.03000000
547,0,-0.04000000,0.99700000,0.05300000,-0.07000000,-0.03000000,0.06000000,0.07493390,-0.07032963,-0.06954578,86.89000000,2.14000000,0.03000000
548,0,-0.03100000,0.99700000,0.05500000,-0.28000000,-0.10000000,0.01000000,0.07464675,-0.07043218,-0.06953552,86.89000000,2.14000000,0.03000000
549,0,-0.03600000,0.99700000,0.05500000,0.12000000,0.01000000,0.24000000,0.08130350,-0.06987745,-0.05622201,86.89000000,2.14000000,0.03000000
550,0,-0.03600000,0.99500000,0.05800000,-0.11000000,-0.03000000,0.04000000,0.08118380,-0.06991010,-0.05617848,86.89000000,2.14000000,0.03000000
551,0,-0.03600000,1.00000000,0.05300000,-0.15000000,-0.16000000,-0.09000000,0.08103243,-0.07007156,-0.05626930,86.89000000,2.14000000,0.03000000
552,0,-0.03900000,1.00000000,0.05100000,0.07000000,-0.11000000,0.32000000,0.08110243,-0.07018156,-0.05594929,86.89000000,2.14000000,0.03000000
553,0,-0.03800000,0.99900000,0.05600000,-0.07000000,-0.21000000,-0.05000000,0.08103148,-0.07039442,-0.05599997,86.89000000,2.14000000,0.03000000
554,0,-0.03700000,1.00000000,0.05600000,0.22000000,0.11000000,0.12000000,0.08125862,-0.07028085,-0.05587608,86.89000000,2.14000000,0.03000000
555,0,-0.04100000,0.99200000,0.05300000,0.05000000,-0.13000000,-0.00000000,0.08402580,-0.07747550,-0.05587608,86.89000000,2.14000000,0.03000000
556,0,-0.03200000,0.99800000,0.05000000,-0.18000000,-0.07000000,-0.02000000,0.08383708,-0.07754889,-0.05589705,86.89000000,2.14000000,0.03000000
557,0,-0.03900000,0.99700000,0.05200000,-0.02000000,0.18000000,0.00000000,0.08381715,-0.07736953,-0.05589705,86.89000000,2.14000000,0.03000000
558,0,-0.03900000,0.99500000,0.05400000,-0.06000000,-0.15000000,0.24000000,0.08375635,-0.07752154,-0.05565383,86.89000000,2.14000000,0.03000000
559,0,-0.04300000,1.00100000,0.05200000,-0.16000000,-0.08000000,-0.04000000,0.08357948,-0.07760997,-0.05569805,86.89000000,2.14000000,0.03000000
560,0,-0.03400000,0.99700000,0.05500000,0.10000000,0.07000000,-0.10000000,0.08368518,-0.07753598,-0.05580375,86.89000000,2.14000000,0.03000000
561,0,-0.03200000,0.99800000,0.05100000,0.17000000,0.07000000,0.07000000,0.09325619,-0.07359498,-0.05186275,86.90000000,2.14000000,0.03000000
562,0,-0.04300000,0.99900000,0.05300000,-0.11000000,-0.18000000,-0.27000000,0.09314094,-0.07378357,-0.05214563,86.89000000,2.14000000,0.03000000
563,0,-0.04200000,0.99500000,0.05200000,-0.02000000,-0.19000000,0.03000000,0.09312101,-0.07397285,-0.05211575,86.89000000,2.14000000,0.03000000
564,0,-0.04000000,0.99800000,0.05000000,-0.12000000,0.01000000,-0.02000000,0.09300035,-0.07396279,-0.05213586,86.90000000,2.14000000,0.03000000
565,0,-0.03500000,0.99500000,0.05500000,-0.06000000,0.15000000,0.09000000,0.09294039,-0.07381290,-0.05204592,86.89000000,2.14000000,0.03000000
566,0,-0.04100000,1.00000000,0.05400000,0.20000000,0.23000000,0.09000000,0.09313883,-0.07358470,-0.05195662,86.90000000,2.14000000,0.03000000
567,0,-0.03900000,0.99800000,0.05400000,0.10000000,-0.06000000,-0.06000000,0.09869013,-0.07691548,-0.05528740,86.89000000,2.14000000,0.03000000
568,0,-0.03700000,0.99800000,0.05200000,0.16000000,0.04000000,0.06000000,0.09885810,-0.07687348,-0.05522441,86.90000000,2.14000000,0.03000000
569,0,-0.03700000,1.00100000,0.05700000,0.05000000,0.01000000,-0.10000000,0.09890801,-0.07686350,-0.05532422,86.89000000,2.14000000,0.03000000
570,0,-0.03900000,0.99800000,0.05200000,-0.01000000,0.08000000,-0.01000000,0.09889798,-0.07678323,-0.05533426,86.89000000,2.14000000,0.03000000
571,0,-0.03900000,0.99700000,0.05500000,-0.26000000,0.08000000,-0.01000000,0.09863803,-0.07670325,-0.05534426,86.89000000,2.14000000,0.03000000
572,0,-0.03700000,0.99400000,0.05300000,-0.16000000,0.05000000,-0.11000000,0.09847825,-0.07665332,-0.05545410,86.89000000,2.14000000,0.03000000
573,0,-0.04100000,0.99200000,0.05600000,0.06000000,-0.17000000,-0.06000000,0.10181519,-0.08610796,-0.05879103,86.89000000,2.14000000,0.03000000
574,0,-0.03300000,0.99800000,0.05000000,0.21000000,-0.13000000,0.10000000,0.10203766,-0.08624568,-0.05868509,86.89000000,2.14000000,0.03000000
575,0,-0.03800000,0.99700000,0.05700000,-0.23000000,-0.02000000,0.18000000,0.10180721,-0.08626572,-0.05850475,86.89000000,2.14000000,0.03000000
576,0,-0.03500000,0.99900000,0.05500000,0.10000000,-0.07000000,-0.05000000,0.10190777,-0.08633611,-0.05855502,86.89000000,2.14000000,0.03000000
577,0,-0.04200000,0.99700000,0.05100000,0.02000000,-0.03000000,-0.10000000,0.10192769,-0.08636599,-0.05865464,86.89000000,2.14000000,0.03000000
578,0,-0.03900000,0.99800000,0.05700000,-0.07000000,-0.07000000,-0.11000000,0.10185772,-0.08643596,-0.05876459,86.89000000,2.14000000,0.03000000
579,0,-0.03700000,0.99700000,0.05300000,0.00000000,-0.01000000,0.12000000,0.10185772,-0.08699990,-0.05199729,86.89000000,2.14000000,0.03000000
580,0,-0.03700000,0.99600000,0.05100000,0.02000000,0.09000000,0.04000000,0.10187945,-0.08690213,-0.05195384,86.90000000,2.14000000,0.03000000
581,0,-0.04100000,1.00200000,0.05500000,-0.01000000,-0.07000000,-0.10000000,0.10186880,-0.08697669,-0.05206035,86.89000000,2.14000000,0.03000000
582,0,-0.03700000,0.99200000,0.05400000,-0.03000000,-0.36000000,0.18000000,0.10183687,-0.08735979,-0.05186880,86.89000000,2.14000000,0.03000000
583,0,-0.03600000,0.99200000,0.05200000,0.07000000,-0.04000000,0.05000000,0.10190869,-0.08740083,-0.05181750,86.90000000,2.14000000,0.03000000
584,0,-0.04000000,0.99700000,0.05200000,-0.04000000,-0.06000000,-0.12000000,0.10186863,-0.08746092,-0.05193767,86.90000000,2.14000000,0.03000000
585,0,-0.03500000,1.00200000,0.05300000,0.19000000,-0.10000000,0.09000000,0.11237506,-0.09299062,-0.04696094,86.90000000,2.14000000,0.02000000
586,0,-0.03600000,0.99900000,0.05800000,0.10000000,0.15000000,0.02000000,0.11247943,-0.09283407,-0.04694007,86.90000000,2.14000000,0.03000000
587,0,-0.03800000,0.99900000,0.05300000,0.25000000,0.20000000,0.14000000,0.11273045,-0.09263325,-0.04679950,86.90000000,2.14000000,0.03000000
588,0,-0.03800000,0.99300000,0.05500000,-0.09000000,0.01000000,0.21000000,0.11264111,-0.09262333,-0.04659104,86.90000000,2.14000000,0.03000000
589,0,-0.03300000,0.99400000,0.05300000,0.18000000,-0.05000000,-0.07000000,0.11281940,-0.09267285,-0.04666038,86.90000000,2.14000000,0.03000000
590,0,-0.03900000,0.99600000,0.05500000,-0.00000000,0.25000000,0.24000000,0.11281940,-0.09242529,-0.04642272,86.90000000,2.14000000,0.03000000
591,0,-0.03000000,0.99900000,0.05000000,0.04000000,0.13000000,0.12000000,0.11504938,-0.08517785,-0.03973277,86.90000000,2.14000000,0.03000000
592,0,-0.03100000,0.99800000,0.05300000,0.18000000,0.13000000,-0.05000000,0.11523973,-0.08504038,-0.03978565,86.90000000,2.14000000,0.03000000
593,0,-0.03700000,0.99500000,0.05500000,0.11000000,0.10000000,0.02000000,0.11535097,-0.08493925,-0.03976542,86.90000000,2.14000000,0.03000000
594,0,-0.03800000,0.99700000,0.05400000,0.04000000,-0.36000000,-0.02000000,0.11539104,-0.08529987,-0.03978546,86.90000000,2.14000000,0.03000000
595,0,-0.03700000,1.00000000,0.05000000,0.03000000,-0.14000000,-0.16000000,0.11542090,-0.08543924,-0.03994474,86.90000000,2.14000000,0.03000000
596,0,-0.03600000,1.00300000,0.05300000,-0.09000000,0.06000000,-0.18000000,0.11533081,-0.08537918,-0.04012492,86.90000000,2.14000000,0.03000000
597,0,-0.04200000,0.99400000,0.05900000,-0.18000000,0.11000000,0.06000000,0.10519603,-0.07918570,-0.03674666,86.90000000,2.14000000,0.03000000
598,0,-0.03900000,0.99700000,0.05500000,0.15000000,-0.06000000,-0.09000000,0.10535484,-0.07924922,-0.03684194,86.90000000,2.14000000,0.03000000
599,0,-0.03800000,0.99600000,0.05400000,0.24000000,0.02000000,-0.27000000,0.10559456,-0.07922925,-0.03711162,86.90000000,2.14000000,0.03000000
600,0,-0.03600000,0.99800000,0.04800000,0.06000000,0.01000000,-0.05000000,0.10565397,-0.07921934,-0.03716114,86.90000000,2.14000000,0.03000000
601,0,-0.03600000,0.99800000,0.05700000,-0.17000000,0.12000000,0.04000000,0.10548567,-0.07910054,-0.03712154,86.90000000,2.14000000,0.03000000
602,0,-0.03900000,0.99400000,0.05300000,0.06000000,-0.23000000,0.16000000,0.10554516,-0.07932857,-0.03696290,86.90000000,2.14000000,0.03000000
603,0,-0.03900000,0.99900000,0.05400000,0.17000000,-0.01000000,0.16000000,0.11498310,-0.07988375,-0.02808014,86.90000000,2.14000000,0.03000000
604,0,-0.04200000,1.00000000,0.05500000,-0.18000000,-0.04000000,0.04000000,0.11479035,-0.07992658,-0.02803730,86.90000000,2.14000000,0.03000000
605,0,-0.03600000,0.99900000,0.05600000,0.11000000,-0.12000000,-0.07000000,0.11489912,-0.08004524,-0.02810652,86.90000000,2.14000000,0.03000000
606,0,-0.03900000,0.99600000,0.05200000,0.23000000,0.23000000,-0.02000000,0.11512485,-0.07981951,-0.02812615,86.90000000,2.14000000,0.03000000
607,0,-0.03900000,1.00100000,0.05800000,0.00000000,-0.16000000,-0.17000000,0.11512485,-0.07997635,-0.02829279,86.90000000,2.14000000,0.03000000
608,0,-0.03700000,0.99700000,0.05400000,-0.04000000,0.06000000,-0.06000000,0.11508545,-0.07991725,-0.02835189,86.90000000,2.14000000,0.03000000
609,0,-0.03800000,0.99800000,0.05400000,0.13000000,-0.04000000,0.07000000,0.12232966,-0.08214624,-0.02445116,86.90000000,2.14000000,0.03000000
610,0,-0.03600000,0.99400000,0.05300000,0.09000000,0.24000000,-0.03000000,0.12242436,-0.08189370,-0.02448273,86.90000000,2.14000000,0.03000000
611,0,-0.03800000,0.99600000,0.05200000,0.29000000,0.02000000,-0.07000000,0.12271651,-0.08187355,-0.02455325,86.90000000,2.14000000,0.03000000
612,0,-0.03900000,0.99500000,0.05400000,0.19000000,-0.04000000,0.03000000,0.12291436,-0.08191520,-0.02452201,86.90000000,2.14000000,0.03000000
613,0,-0.04000000,1.00000000,0.05200000,0.17000000,0.20000000,-0.25000000,0.12308578,-0.08171353,-0.02477410,86.90000000,2.14000000,0.03000000
614,0,-0.03700000,1.00100000,0.05500000,-0.24000000,-0.11000000,0.12000000,0.12284680,-0.08182306,-0.02465461,86.90000000,2.14000000,0.03000000
615,0,-0.04000000,0.99600000,0.05900000,-0.03000000,-0.01000000,0.09000000,0.12115752,-0.08238615,-0.01958675,86.90000000,2.14000000,0.03000000
616,0,-0.03800000,0.99600000,0.05200000,0.19000000,0.18000000,0.04000000,0.12135654,-0.08219761,-0.01954485,86.90000000,2.14000000,0.03000000
617,0,-0.02900000,0.99800000,0.05600000,-0.01000000,-0.28000000,-0.11000000,0.12134658,-0.08247648,-0.01965441,86.90000000,2.14000000,0.03000000
618,0,-0.03400000,0.99700000,0.05100000,0.10000000,-0.06000000,0.04000000,0.12144505,-0.08253557,-0.01961502,86.90000000,2.14000000,0.03000000
619,0,-0.03600000,0.99800000,0.05600000,0.12000000,-0.11000000,0.12000000,0.12156303,-0.08264371,-0.01949705,86.90000000,2.14000000,0.03000000
620,0,-0.03500000,0.99000000,0.05600000,0.00000000,-0.07000000,-0.04000000,0.12156303,-0.08271318,-0.01953674,86.90000000,2.14000000,0.03000000
621,0,-0.03900000,1.00100000,0.05500000,-0.06000000,-0.13000000,-0.18000000,0.11822662,-0.08994205,-0.02954595,86.90000000,2.14000000,0.02000000
622,0,-0.04000000,0.99900000,0.05500000,-0.25000000,0.04000000,0.07000000,0.11796279,-0.08989983,-0.02947208,86.90000000,2.14000000,0.02000000
623,0,-0.03500000,0.99600000,0.05400000,0.01000000,-0.07000000,-0.03000000,0.11797276,-0.08996967,-0.02950201,86.90000000,2.14000000,0.02000000
624,0,-0.03500000,0.99900000,0.05600000,-0.03000000,-0.10000000,-0.09000000,0.11794296,-0.09006901,-0.02959141,86.90000000,2.14000000,0.02000000
625,0,-0.04300000,1.00000000,0.05500000,-0.04000000,0.15000000,0.21000000,0.11790330,-0.08992025,-0.02938315,86.90000000,2.14000000,0.02000000
626,0,-0.03400000,0.99600000,0.05800000,0.02000000,0.16000000,0.01000000,0.11792332,-0.08976009,-0.02937314,86.90000000,2.14000000,0.02000000
627,0,-0.03500000,1.00100000,0.04800000,-0.10000000,-0.05000000,0.10000000,0.11227713,-0.09258319,-0.02372695,86.90000000,2.14000000,0.02000000
628,0,-0.03800000,0.99600000,0.05300000,-0.00000000,-0.08000000,-0.05000000,0.11227713,-0.09266802,-0.02377997,86.90000000,2.14000000,0.02000000
629,0,-0.04200000,0.99900000,0.05300000,-0.03000000,-0.12000000,0.10000000,0.11224720,-0.09278771,-0.02368023,86.90000000,2.14000000,0.02000000
630,0,-0.03400000,0.99800000,0.05500000,0.02000000,0.05000000,0.11000000,0.11226703,-0.09273815,-0.02357120,86.90000000,2.14000000,0.02000000
631,0,-0.04000000,0.99400000,0.05100000,-0.06000000,0.09000000,0.12000000,0.11220691,-0.09264797,-0.02345096,86.90000000,2.14000000,0.02000000
632,0,-0.04100000,0.99600000,0.05300000,-0.25000000,0.00000000,-0.06000000,0.11195845,-0.09264797,-0.02351059,86.90000000,2.14000000,0.02000000
633,0,-0.03200000,0.99800000,0.05100000,0.05000000,-0.03000000,0.02000000,0.11200807,-0.09267774,-0.02349075,86.90000000,2.14000000,0.02000000
634,0,-0.03200000,0.99600000,0.05300000,-0.07000000,0.08000000,-0.00000000,0.10791333,-0.08799804,-0.02349075,86.90000000,2.14000000,0.02000000
635,0,-0.03300000,0.99800000,0.05000000,-0.11000000,0.19000000,-0.13000000,0.10779735,-0.08779770,-0.02362782,86.90000000,2.14000000,0.02000000
636,0,-0.03900000,0.99600000,0.05500000,0.07000000,0.04000000,-0.09000000,0.10786748,-0.08775763,-0.02371799,86.90000000,2.14000000,0.02000000
637,0,-0.03800000,0.99500000,0.04900000,0.05000000,-0.12000000,0.07000000,0.10791777,-0.08787832,-0.02364759,86.90000000,2.14000000,0.02000000
638,0,-0.03900000,0.99700000,0.05200000,-0.14000000,-0.07000000,-0.00000000,0.10777763,-0.08794839,-0.02364759,86.90000000,2.14000000,0.02000000
639,0,-0.03700000,0.99800000,0.05300000,0.16000000,0.00000000,0.11000000,0.10793710,-0.08794839,-0.02353795,86.90000000,2.14000000,0.02000000
640,0,-0.03700000,1.00100000,0.05300000,-0.01000000,0.17000000,-0.11000000,0.10738155,-0.07850404,-0.02964900,86.90000000,2.14000000,0.02000000
641,0,-0.03600000,0.99600000,0.05400000,0.14000000,-0.20000000,-0.01000000,0.10752897,-0.07871463,-0.02965953,86.90000000,2.14000000,0.02000000
642,0,-0.04000000,0.99700000,0.05300000,-0.17000000,-0.03000000,-0.04000000,0.10735714,-0.07874495,-0.02969996,86.90000000,2.14000000,0.02000000
643,0,-0.03700000,0.99400000,0.05300000,-0.09000000,0.14000000,0.15000000,0.10726688,-0.07860455,-0.02954953,86.90000000,2.14000000,0.02000000
644,0,-0.03800000,1.00200000,0.05700000,0.18000000,0.25000000,-0.25000000,0.10744753,-0.07835365,-0.02980043,86.90000000,2.14000000,0.02000000
645,0,-0.03400000,0.99900000,0.05100000,-0.01000000,-0.23000000,0.29000000,0.10743751,-0.07858404,-0.02950993,86.90000000,2.14000000,0.02000000
646,0,-0.03600000,0.99800000,0.05200000,-0.05000000,0.09000000,-0.15000000,0.10465940,-0.07358345,-0.03784425,86.90000000,2.14000000,0.02000000
647,0,-0.03200000,0.99500000,0.05400000,-0.11000000,-0.02000000,-0.10000000,0.10454334,-0.07360455,-0.03794976,86.90000000,2.14000000,0.02000000
648,0,-0.03900000,0.99600000,0.05200000,-0.18000000,0.25000000,0.16000000,0.10436338,-0.07335460,-0.03778980,86.90000000,2.14000000,0.02000000
649,0,-0.03800000,1.00200000,0.05300000,0.02000000,-0.08000000,-0.04000000,0.10438323,-0.07343401,-0.03782950,86.90000000,2.14000000,0.02000000
650,0,-0.03200000,0.99500000,0.05300000,0.09000000,0.09000000,-0.00000000,0.10447388,-0.07334337,-0.03782950,86.90000000,2.14000000,0.02000000
651,0,-0.03600000,1.00200000,0.05300000,0.11000000,0.11000000,0.07000000,0.10458438,-0.07323287,-0.03775918,86.90000000,2.14000000,0.02000000
652,0,-0.03600000,0.99900000,0.05100000,-0.03000000,-0.03000000,0.12000000,0.10289328,-0.07492397,-0.03099477,86.90000000,2.14000000,0.02000000
653,0,-0.03900000,0.99600000,0.05200000,0.15000000,-0.14000000,0.22000000,0.10305566,-0.07507552,-0.03075661,86.90000000,2.14000000,0.02000000
654,0,-0.03400000,0.99900000,0.05300000,-0.05000000,0.33000000,0.10000000,0.10300520,-0.07474252,-0.03065570,86.90000000,2.14000000,0.02000000
655,0,-0.04000000,1.00000000,0.05700000,-0.28000000,-0.13000000,0.03000000,0.10272252,-0.07487377,-0.03062542,86.90000000,2.14000000,0.02000000
656,0,-0.03800000,0.99400000,0.05300000,0.12000000,0.19000000,-0.00000000,0.10284218,-0.07468430,-0.03062542,86.90000000,2.13000000,0.02000000
657,0,-0.03800000,0.99900000,0.05500000,0.33000000,-0.15000000,0.02000000,0.10317180,-0.07483413,-0.03060544,86.90000000,2.13000000,0.02000000
658,0,-0.03800000,0.99700000,0.05500000,-0.17000000,-0.13000000,0.00000000,0.09374440,-0.08204332,-0.03060544,86.90000000,2.13000000,0.02000000
659,0,-0.04100000,0.99900000,0.05400000,-0.12000000,-0.09000000,0.11000000,0.09361813,-0.08213802,-0.03048969,86.90000000,2.13000000,0.02000000
660,0,-0.03600000,1.00000000,0.05300000,0.06000000,-0.12000000,0.03000000,0.09367796,-0.08225768,-0.03045978,86.90000000,2.13000000,0.02000000
661,0,-0.03700000,0.99900000,0.05200000,0.06000000,-0.03000000,-0.15000000,0.09373809,-0.08228775,-0.03061010,86.90000000,2.13000000,0.02000000
662,0,-0.03500000,1.00000000,0.05800000,0.01000000,0.00000000,-0.03000000,0.09374804,-0.08228775,-0.03063997,86.90000000,2.13000000,0.02000000
663,0,-0.03600000,0.99700000,0.05100000,-0.09000000,-0.12000000,-0.03000000,0.09364495,-0.08242520,-0.03067433,86.90000000,2.13000000,0.02000000
664,0,-0.03700000,0.99700000,0.05500000,0.05000000,0.06000000,-0.14000000,0.09642440,-0.07908986,-0.03845680,86.90000000,2.13000000,0.02000000
665,0,-0.03800000,0.99800000,0.05300000,0.07000000,0.26000000,-0.11000000,0.09649846,-0.07881479,-0.03857318,86.90000000,2.14000000,0.02000000
666,0,-0.03600000,0.99800000,0.05200000,-0.07000000,-0.18000000,-0.05000000,0.09638350,-0.07911041,-0.03865530,86.90000000,2.14000000,0.02000000
667,0,-0.03300000,0.99900000,0.05300000,0.08000000,0.08000000,0.14000000,0.09646619,-0.07902772,-0.03851058,86.90000000,2.14000000,0.02000000
668,0,-0.04000000,0.99500000,0.05400000,-0.12000000,0.08000000,0.17000000,0.09634587,-0.07894750,-0.03834013,86.90000000,2.14000000,0.02000000
669,0,-0.03800000,0.99500000,0.05400000,0.09000000,0.06000000,0.21000000,0.09643809,-0.07888603,-0.03812497,86.90000000,2.14000000,0.02000000
670,0,-0.04100000,1.00200000,0.05400000,-0.34000000,-0.22000000,0.06000000,0.07754048,-0.09111389,-0.03479010,86.90000000,2.14000000,0.02000000
671,0,-0.03200000,0.99700000,0.05500000,-0.07000000,-0.07000000,0.07000000,0.07746762,-0.09118675,-0.03471724,86.90000000,2.13000000,0.02000000
672,0,-0.03800000,0.99600000,0.05300000,0.01000000,-0.04000000,0.25000000,0.07747797,-0.09122815,-0.03445847,86.90000000,2.14000000,0.02000000
673,0,-0.04300000,0.99300000,0.05400000,0.17000000,0.00000000,0.01000000,0.07764721,-0.09122815,-0.03444852,86.90000000,2.13000000,0.02000000
674,0,-0.04200000,0.99900000,0.05200000,-0.02000000,-0.20000000,-0.31000000,0.07762747,-0.09142553,-0.03475446,86.90000000,2.14000000,0.02000000
675,0,-0.03700000,0.99400000,0.05300000,0.06000000,0.07000000,0.17000000,0.07768683,-0.09135628,-0.03458628,86.90000000,2.13000000,0.02000000
676,0,-0.04000000,1.00700000,0.05700000,0.04000000,0.14000000,0.05000000,0.07990763,-0.08358346,-0.03181027,86.90000000,2.13000000,0.02000000
677,0,-0.03900000,0.99700000,0.05100000,0.03000000,0.03000000,0.06000000,0.07993862,-0.08355248,-0.03174831,86.90000000,2.14000000,0.02000000
678,0,-0.03200000,0.99800000,0.05700000,-0.12000000,-0.08000000,0.23000000,0.07981744,-0.08363326,-0.03151606,86.90000000,2.14000000,0.02000000
679,0,-0.03700000,0.99900000,0.05100000,-0.12000000,0.20000000,0.08000000,0.07969706,-0.08343264,-0.03143581,86.90000000,2.13000000,0.02000000
680,0,-0.03800000,0.99500000,0.05200000,0.03000000,-0.09000000,-0.11000000,0.07972666,-0.08352144,-0.03154434,86.90000000,2.13000000,0.02000000
681,0,-0.03900000,1.00000000,0.05300000,0.14000000,-0.04000000,-0.12000000,0.07986410,-0.08356071,-0.03166214,86.90000000,2.14000000,0.02000000
682,0,-0.03400000,0.99900000,0.05500000,-0.24000000,0.11000000,-0.04000000,0.06650235,-0.07743657,-0.03388910,86.90000000,2.14000000,0.02000000
683,0,-0.03800000,1.00000000,0.05700000,0.03000000,-0.03000000,-0.06000000,0.06653338,-0.07746760,-0.03395116,86.90000000,2.14000000,0.02000000
684,0,-0.04000000,1.00100000,0.05600000,0.06000000,-0.23000000,-0.01000000,0.06659353,-0.07769816,-0.03396119,86.90000000,2.14000000,0.02000000
685,0,-0.03400000,0.99800000,0.05300000,0.02000000,0.05000000,-0.03000000,0.06661365,-0.07764786,-0.03399136,86.90000000,2.14000000,0.02000000
686,0,-0.03800000,0.99300000,0.04900000,0.10000000,0.08000000,-0.00000000,0.06671174,-0.07756938,-0.03399136,86.90000000,2.14000000,0.02000000
687,0,-0.03500000,0.99300000,0.05200000,-0.19000000,0.07000000,0.02000000,0.06652432,-0.07750033,-0.03397164,86.90000000,2.14000000,0.02000000
688,0,-0.03500000,1.00200000,0.05500000,-0.18000000,-0.07000000,-0.29000000,0.05636881,-0.08144970,-0.05033328,86.89000000,2.14000000,0.02000000
689,0,-0.03400000,0.99700000,0.05500000,0.19000000,-0.07000000,-0.19000000,0.05656851,-0.08152327,-0.05053298,86.89000000,2.14000000,0.02000000
690,0,-0.03600000,1.00000000,0.05200000,-0.07000000,-0.12000000,-0.27000000,0.05649749,-0.08164502,-0.05080692,86.90000000,2.14000000,0.02000000
691,0,-0.04200000,0.99700000,0.05900000,-0.06000000,0.09000000,0.12000000,0.05643334,-0.08154879,-0.05067862,86.89000000,2.14000000,0.02000000
692,0,-0.03600000,0.99700000,0.05500000,0.15000000,0.11000000,0.08000000,0.05658725,-0.08143593,-0.05059654,86.90000000,2.14000000,0.02000000
693,0,-0.03700000,0.99800000,0.05100000,-0.33000000,-0.25000000,-0.04000000,0.05624968,-0.08169166,-0.05063745,86.89000000,2.14000000,0.02000000
694,0,-0.03300000,1.00200000,0.05600000,-0.12000000,-0.12000000,0.06000000,0.04960546,-0.08833588,-0.04731534,86.89000000,2.14000000,0.02000000
695,0,-0.04000000,0.99900000,0.05600000,0.22000000,0.09000000,0.13000000,0.04983622,-0.08824148,-0.04717898,86.89000000,2.14000000,0.02000000
696,0,-0.03400000,0.99800000,0.05500000,0.04000000,0.07000000,0.20000000,0.04987588,-0.08817208,-0.04698069,86.89000000,2.14000000,0.02000000
697,0,-0.04300000,0.99700000,0.05600000,-0.12000000,-0.06000000,0.15000000,0.04975825,-0.08823090,-0.04683366,86.89000000,2.14000000,0.02000000
698,0,-0.04100000,1.00200000,0.05500000,0.03000000,-0.05000000,0.16000000,0.04979036,-0.08828441,-0.04666240,86.89000000,2.14000000,0.02000000
699,0,-0.04000000,0.99800000,0.05200000,0.07000000,0.11000000,0.18000000,0.04986301,-0.08817024,-0.04647557,86.89000000,2.14000000,0.02000000
700,0,-0.03800000,0.99600000,0.05700000,-0.14000000,-0.14000000,-0.09000000,0.04196055,-0.09607270,-0.05155573,86.89000000,2.14000000,0.02000000
701,0,-0.04200000,0.99400000,0.05000000,0.08000000,-0.04000000,-0.12000000,0.04204307,-0.09611397,-0.05167951,86.89000000,2.14000000,0.02000000
702,0,-0.03600000,0.99500000,0.05700000,-0.16000000,-0.12000000,0.10000000,0.04188543,-0.09623219,-0.05158098,86.89000000,2.14000000,0.02000000
703,0,-0.04000000,0.99700000,0.06000000,0.12000000,0.21000000,0.10000000,0.04200337,-0.09602579,-0.05148270,86.89000000,2.14000000,0.02000000
704,0,-0.03700000,0.99100000,0.05700000,-0.22000000,-0.25000000,0.25000000,0.04178714,-0.09627151,-0.05123698,86.89000000,2.14000000,0.02000000
705,0,-0.04000000,0.99900000,0.05200000,0.15000000,0.03000000,0.03000000,0.04193929,-0.09624108,-0.05120655,86.89000000,2.14000000,0.02000000
706,0,-0.03400000,0.99800000,0.05400000,-0.02000000,-0.01000000,0.12000000,0.04082476,-0.09679835,-0.04451935,86.89000000,2.14000000,0.02000000
707,0,-0.03500000,0.99400000,0.05500000,-0.08000000,-0.06000000,-0.11000000,0.04073579,-0.09686507,-0.04464168,86.89000000,2.14000000,0.02000000
708,0,-0.03500000,0.99900000,0.05800000,0.06000000,-0.05000000,-0.09000000,0.04079837,-0.09691722,-0.04473555,86.89000000,2.14000000,0.02000000
709,0,-0.03700000,0.99400000,0.05300000,0.09000000,-0.09000000,0.01000000,0.04088855,-0.09700739,-0.04472553,86.89000000,2.14000000,0.02000000
710,0,-0.04500000,0.99200000,0.04900000,0.07000000,-0.08000000,0.08000000,0.04095830,-0.09708711,-0.04464581,86.89000000,2.14000000,0.02000000
711,0,-0.03900000,1.00000000,0.05500000,-0.13000000,-0.45000000,-0.30000000,0.04081605,-0.09757950,-0.04497408,86.89000000,2.14000000,0.02000000
712,0,-0.03900000,0.99600000,0.05300000,-0.28000000,0.03000000,0.17000000,0.02537622,-0.09592523,-0.03559989,86.89000000,2.14000000,0.02000000
713,0,-0.03700000,0.99900000,0.05200000,0.29000000,-0.03000000,0.05000000,0.02567521,-0.09595616,-0.03554834,86.89000000,2.14000000,0.02000000
714,0,-0.04100000,0.99500000,0.05300000,0.00000000,0.09000000,-0.06000000,0.02567521,-0.09586732,-0.03560757,86.89000000,2.14000000,0.02000000
715,0,-0.03800000,0.99900000,0.05400000,0.00000000,-0.01000000,-0.24000000,0.02567521,-0.09587735,-0.03584820,86.89000000,2.14000000,0.02000000
716,0,-0.03900000,0.99500000,0.05500000,0.05000000,-0.02000000,0.04000000,0.02572439,-0.09589702,-0.03580886,86.89000000,2.14000000,0.02000000
717,0,-0.04000000,0.99800000,0.04900000,0.00000000,-0.08000000,0.01000000,0.02572439,-0.09597708,-0.03579885,86.89000000,2.14000000,0.02000000
718,0,-0.03000000,0.99600000,0.05500000,-0.24000000,0.00000000,-0.01000000,0.01233060,-0.09597708,-0.03635693,86.89000000,2.14000000,0.02000000
719,0,-0.03600000,0.99800000,0.05500000,-0.28000000,-0.14000000,0.03000000,0.01202997,-0.09612740,-0.03632472,86.89000000,2.14000000,0.02000000
720,0,-0.03800000,0.99600000,0.05400000,0.15000000,-0.29000000,-0.01000000,0.01218176,-0.09642086,-0.03633484,86.89000000,2.14000000,0.02000000
721,0,-0.03400000,0.99600000,0.05500000,-0.09000000,0.28000000,0.18000000,0.01209186,-0.09614119,-0.03615505,86.89000000,2.14000000,0.02000000
722,0,-0.04200000,0.99700000,0.05700000,-0.16000000,0.03000000,0.07000000,0.01193293,-0.09611139,-0.03608551,86.89000000,2.14000000,0.02000000
723,0,-0.04000000,0.99400000,0.05300000,0.34000000,-0.02000000,-0.10000000,0.01226799,-0.09613110,-0.03618406,86.89000000,2.14000000,0.02000000
724,0,-0.03300000,0.99800000,0.05000000,-0.16000000,0.10000000,0.01000000,0.00327044,-0.09050763,-0.03562171,86.89000000,2.14000000,0.02000000
725,0,-0.03800000,0.99800000,0.05700000,0.00000000,0.17000000,0.01000000,0.00327044,-0.09033130,-0.03561134,86.89000000,2.14000000,0.02000000
726,0,-0.03700000,0.99900000,0.05300000,0.17000000,-0.15000000,0.01000000,0.00343818,-0.09047930,-0.03560147,86.89000000,2.14000000,0.02000000
727,0,-0.03900000,0.99500000,0.05200000,-0.08000000,0.16000000,-0.16000000,0.00335941,-0.09032177,-0.03575900,86.89000000,2.14000000,0.02000000
728,0,-0.04100000,0.99500000,0.05400000,0.07000000,0.09000000,-0.07000000,0.00342990,-0.09023115,-0.03582949,86.89000000,2.14000000,0.02000000
729,0,-0.04200000,1.00100000,0.05000000,0.06000000,0.11000000,-0.07000000,0.00349016,-0.09012067,-0.03589979,86.89000000,2.14000000,0.02000000
730,0,-0.03800000,1.00100000,0.05400000,-0.17000000,-0.16000000,-0.30000000,-0.00595869,-0.09901370,-0.05257422,86.89000000,2.14000000,0.02000000
731,0,-0.03800000,1.00100000,0.05200000,0.02000000,-0.08000000,-0.14000000,-0.00593790,-0.09909683,-0.05271970,86.89000000,2.14000000,0.02000000
732,0,-0.04000000,0.99700000,0.05300000,-0.04000000,-0.07000000,-0.09000000,-0.00597726,-0.09916572,-0.05280826,86.89000000,2.14000000,0.02000000
733,0,-0.03800000,0.99800000,0.05600000,-0.15000000,-0.03000000,-0.09000000,-0.00612530,-0.09919533,-0.05289708,86.89000000,2.14000000,0.02000000
734,0,-0.03600000,0.99800000,0.05400000,-0.09000000,0.28000000,-0.03000000,-0.00621520,-0.09891565,-0.05292705,86.89000000,2.14000000,0.02000000
735,0,-0.04200000,1.00100000,0.05300000,0.05000000,0.00000000,-0.14000000,-0.00616549,-0.09891565,-0.05306622,86.89000000,2.14000000,0.02000000
736,0,-0.03700000,0.99500000,0.05000000,0.09000000,0.21000000,0.09000000,-0.00107796,-0.08704473,-0.04797868,86.89000000,2.14000000,0.02000000
737,0,-0.04000000,0.99600000,0.05400000,-0.09000000,0.20000000,-0.08000000,-0.00117111,-0.08683771,-0.04806149,86.89000000,2.14000000,0.02000000
738,0,-0.03500000,1.00200000,0.05300000,0.05000000,0.23000000,0.00000000,-0.00112182,-0.08661094,-0.04806149,86.89000000,2.14000000,0.02000000
739,0,-0.03900000,1.00200000,0.05200000,0.00000000,-0.01000000,0.15000000,-0.00112182,-0.08662122,-0.04790741,86.89000000,2.14000000,0.02000000
740,0,-0.03900000,0.99800000,0.05000000,-0.11000000,-0.05000000,0.06000000,-0.00123095,-0.08667082,-0.04784788,86.89000000,2.14000000,0.02000000
741,0,-0.03800000,0.99400000,0.05700000,0.24000000,-0.07000000,-0.09000000,-0.00099192,-0.08674054,-0.04793751,86.89000000,2.14000000,0.02000000
742,0,-0.03900000,0.99700000,0.05700000,-0.04000000,-0.19000000,0.03000000,-0.00321294,-0.09729037,-0.04627175,86.89000000,2.14000000,0.02000000
743,0,-0.03700000,0.99600000,0.05400000,0.19000000,0.15000000,0.20000000,-0.00301641,-0.09713521,-0.04606488,86.89000000,2.14000000,0.02000000
744,0,-0.04000000,0.99600000,0.05100000,-0.08000000,-0.21000000,-0.03000000,-0.00309542,-0.09734262,-0.04609451,86.90000000,2.14000000,0.02000000
745,0,-0.03700000,1.00200000,0.05400000,0.11000000,0.18000000,0.16000000,-0.00298499,-0.09716193,-0.04593389,86.90000000,2.14000000,0.02000000
746,0,-0.03400000,0.99600000,0.05100000,-0.07000000,0.14000000,-0.00000000,-0.00305548,-0.09702095,-0.04593389,86.90000000,2.14000000,0.02000000
747,0,-0.04200000,0.99600000,0.05500000,0.11000000,-0.03000000,-0.08000000,-0.00294676,-0.09705060,-0.04601296,86.90000000,2.15000000,0.02000000
748,0,-0.03500000,0.99700000,0.05100000,-0.06000000,0.23000000,0.06000000,-0.00627893,-0.08427729,-0.04268079,86.90000000,2.14000000,0.02000000
749,0,-0.03400000,1.00100000,0.05600000,0.05000000,0.07000000,-0.10000000,-0.00622700,-0.08420459,-0.04278466,86.90000000,2.14000000,0.02000000
750,0,-0.03800000,0.99200000,0.05200000,0.06000000,-0.07000000,-0.06000000,-0.00616734,-0.08427419,-0.04284432,86.90000000,2.14000000,0.02000000
751,0,-0.03400000,0.99700000,0.05700000,0.32000000,0.00000000,-0.04000000,-0.00584588,-0.08427419,-0.04288450,86.90000000,2.14000000,0.03000000
752,0,-0.03800000,1.00200000,0.05100000,-0.02000000,-0.12000000,-0.01000000,-0.00586594,-0.08439456,-0.04289453,86.90000000,2.14000000,0.02000000
753,0,-0.03400000,0.99900000,0.05700000,0.11000000,-0.24000000,-0.11000000,-0.00575736,-0.08463148,-0.04300312,86.90000000,2.14000000,0.02000000
754,0,-0.04200000,0.99700000,0.05100000,0.06000000,-0.04000000,-0.12000000,-0.00218573,-0.08701256,-0.05014636,86.90000000,2.14000000,0.02000000
755,0,-0.03600000,0.99800000,0.05700000,0.23000000,-0.12000000,0.27000000,-0.00194355,-0.08713892,-0.04986206,86.90000000,2.14000000,0.02000000
756,0,-0.03400000,0.99800000,0.05300000,0.05000000,0.09000000,-0.23000000,-0.00189240,-0.08704683,-0.05009739,86.90000000,2.14000000,0.02000000
757,0,-0.03800000,0.99300000,0.05300000,0.21000000,0.20000000,-0.23000000,-0.00168019,-0.08684473,-0.05032981,86.90000000,2.14000000,0.02000000
758,0,-0.03800000,0.99600000,0.05200000,0.09000000,0.09000000,-0.01000000,-0.00159027,-0.08675481,-0.05033980,86.90000000,2.14000000,0.02000000
759,0,-0.03800000,0.99900000,0.05700000,-0.09000000,-0.05000000,0.02000000,-0.00168027,-0.08680481,-0.05031980,86.90000000,2.14000000,0.02000000
760,0,-0.03800000,0.99800000,0.05400000,-0.20000000,0.21000000,0.03000000,-0.00188276,-0.08659220,-0.05028942,86.90000000,2.14000000,0.02000000
761,0,-0.03900000,0.99700000,0.05300000,-0.07000000,-0.05000000,0.07000000,-0.00576221,-0.08936324,-0.04640997,86.90000000,2.14000000,0.02000000
762,0,-0.03900000,0.99900000,0.05200000,0.06000000,-0.06000000,-0.05000000,-0.00570015,-0.08942530,-0.04646169,86.90000000,2.14000000,0.02000000
763,0,-0.03300000,0.99900000,0.05400000,-0.04000000,-0.05000000,0.19000000,-0.00574006,-0.08947520,-0.04627209,86.90000000,2.14000000,0.02000000
764,0,-0.04000000,0.99600000,0.05400000,-0.09000000,-0.10000000,0.00000000,-0.00583127,-0.08957653,-0.04627209,86.90000000,2.14000000,0.02000000
765,0,-0.03900000,1.00000000,0.05300000,-0.06000000,-0.16000000,0.05000000,-0.00589144,-0.08973700,-0.04622195,86.90000000,2.15000000,0.02000000
766,0,-0.04300000,0.99800000,0.05300000,0.21000000,0.00000000,0.03000000,-0.00568349,-0.08973700,-0.04619224,86.90000000,2.15000000,0.02000000
767,0,-0.04100000,0.99900000,0.05100000,-0.24000000,-0.04000000,-0.06000000,-0.01903905,-0.09196292,-0.04953113,86.90000000,2.15000000,0.02000000
768,0,-0.03800000,1.00000000,0.05700000,-0.01000000,0.05000000,-0.08000000,-0.01904983,-0.09190904,-0.04961735,86.90000000,2.15000000,0.02000000
769,0,-0.03800000,1.00100000,0.05400000,-0.02000000,-0.11000000,-0.47000000,-0.01907011,-0.09202059,-0.05009398,86.90000000,2.15000000,0.02000000
770,0,-0.03600000,0.99600000,0.05500000,0.01000000,0.07000000,0.28000000,-0.01906010,-0.09195047,-0.04981350,86.90000000,2.15000000,0.02000000
771,0,-0.03600000,0.99400000,0.05500000,0.12000000,0.14000000,0.24000000,-0.01894147,-0.09181207,-0.04957624,86.90000000,2.15000000,0.03000000
772,0,-0.03900000,0.99800000,0.05400000,0.11000000,-0.08000000,0.17000000,-0.01883293,-0.09189100,-0.04940851,86.90000000,2.15000000,0.03000000
773,0,-0.03300000,1.00100000,0.05200000,-0.31000000,0.22000000,0.16000000,-0.03607722,-0.07965312,-0.04050823,86.90000000,2.15000000,0.03000000
774,0,-0.03900000,0.99800000,0.05700000,0.18000000,-0.19000000,-0.05000000,-0.03588841,-0.07985241,-0.04056067,86.90000000,2.15000000,0.03000000
775,0,-0.04200000,0.99700000,0.05600000,-0.29000000,-0.04000000,-0.13000000,-0.03618250,-0.07989298,-0.04069251,86.90000000,2.15000000,0.02000000
776,0,-0.03500000,0.99700000,0.04900000,-0.01000000,0.02000000,-0.04000000,-0.03619299,-0.07987200,-0.04073445,86.90000000,2.15000000,0.03000000
777,0,-0.03700000,0.99500000,0.05400000,-0.05000000,-0.15000000,0.00000000,-0.03624261,-0.08002086,-0.04073445,86.90000000,2.15000000,0.03000000
778,0,-0.04000000,0.99700000,0.05700000,-0.10000000,-0.00000000,-0.06000000,-0.03634290,-0.08002086,-0.04079463,86.90000000,2.15000000,0.03000000
779,0,-0.03900000,0.99800000,0.05400000,0.05000000,0.13000000,0.05000000,-0.03353271,-0.07271438,-0.03798444,86.90000000,2.15000000,0.03000000
780,0,-0.03900000,0.99400000,0.05700000,-0.01000000,0.26000000,0.11000000,-0.03354334,-0.07243813,-0.03786757,86.90000000,2.15000000,0.03000000
781,0,-0.03600000,1.00100000,0.05200000,-0.03000000,-0.12000000,0.14000000,-0.03357344,-0.07255854,-0.03772710,86.90000000,2.15000000,0.03000000
782,0,-0.03600000,0.99900000,0.05600000,0.05000000,-0.10000000,-0.11000000,-0.03352374,-0.07265794,-0.03783644,86.90000000,2.15000000,0.03000000
783,0,-0.03600000,0.99900000,0.05600000,-0.05000000,-0.07000000,0.16000000,-0.03357339,-0.07272746,-0.03767754,86.90000000,2.15000000,0.03000000
784,0,-0.04000000,1.00000000,0.04900000,-0.16000000,-0.02000000,-0.13000000,-0.03373363,-0.07274749,-0.03780773,86.90000000,2.15000000,0.02000000
785,0,-0.04000000,1.00000000,0.05800000,-0.02000000,0.04000000,0.16000000,-0.03484359,-0.07052757,-0.02892806,86.90000000,2.15000000,0.03000000
786,0,-0.03800000,0.99900000,0.05300000,0.08000000,-0.15000000,-0.02000000,-0.03475834,-0.07068741,-0.02894937,86.90000000,2.15000000,0.03000000
787,0,-0.03100000,0.99800000,0.05600000,0.06000000,-0.16000000,0.02000000,-0.03469663,-0.07085195,-0.02892880,86.90000000,2.15000000,0.03000000
788,0,-0.04500000,0.99400000,0.05400000,-0.02000000,-0.16000000,-0.04000000,-0.03471707,-0.07101543,-0.02896967,86.90000000,2.15000000,0.02000000
789,0,-0.03800000,0.99700000,0.05400000,-0.03000000,-0.10000000,-0.12000000,-0.03474682,-0.07111460,-0.02908867,86.90000000,2.15000000,0.02000000
790,0,-0.04100000,0.99700000,0.05500000,-0.08000000,-0.15000000,0.19000000,-0.03482762,-0.07126611,-0.02889676,86.90000000,2.15000000,0.02000000
791,0,-0.04200000,0.99400000,0.05300000,-0.06000000,-0.14000000,-0.08000000,-0.03821777,-0.07917645,-0.03341696,86.90000000,2.15000000,0.02000000
792,0,-0.03700000,1.00300000,0.05100000,0.17000000,-0.11000000,-0.22000000,-0.03804112,-0.07929075,-0.03364557,86.90000000,2.15000000,0.02000000
793,0,-0.04200000,1.00300000,0.05500000,-0.18000000,-0.01000000,-0.21000000,-0.03822353,-0.07930089,-0.03385838,86.90000000,2.15000000,0.02000000
794,0,-0.03900000,0.99000000,0.05800000,0.28000000,0.05000000,-0.07000000,-0.03794545,-0.07925123,-0.03392790,86.90000000,2.15000000,0.02000000
795,0,-0.03600000,1.00000000,0.05300000,-0.06000000,-0.13000000,0.15000000,-0.03800578,-0.07938195,-0.03377707,86.90000000,2.15000000,0.02000000
796,0,-0.03700000,1.00000000,0.05100000,0.01000000,-0.17000000,0.06000000,-0.03799582,-0.07955126,-0.03371731,86.90000000,2.15000000,0.02000000
797,0,-0.03700000,0.99400000,0.05200000,-0.14000000,-0.01000000,-0.06000000,-0.04576244,-0.08010602,-0.03704586,86.90000000,2.15000000,0.02000000
798,0,-0.03700000,0.99600000,0.05100000,0.04000000,-0.18000000,-0.12000000,-0.04572032,-0.08029555,-0.03717221,86.90000000,2.15000000,0.02000000
799,0,-0.04500000,1.00300000,0.05400000,-0.05000000,0.25000000,-0.09000000,-0.04577055,-0.08004441,-0.03726262,86.90000000,2.15000000,0.02000000
800,0,-0.04300000,0.99800000,0.06000000,0.16000000,-0.10000000,0.06000000,-0.04561127,-0.08014396,-0.03720289,86.90000000,2.15000000,0.02000000
801,0,-0.03900000,0.99800000,0.04900000,0.34000000,-0.02000000,0.25000000,-0.04527158,-0.08016395,-0.03695313,86.90000000,2.15000000,0.02000000
802,0,-0.03600000,0.99500000,0.05400000,0.07000000,0.17000000,0.12000000,-0.04520151,-0.07999378,-0.03683301,86.90000000,2.15000000,0.02000000
803,0,-0.03800000,0.99500000,0.06000000,-0.12000000,0.06000000,0.05000000,-0.05186963,-0.07665972,-0.03405463,86.90000000,2.15000000,0.02000000
804,0,-0.03400000,1.00000000,0.05000000,0.01000000,-0.05000000,0.11000000,-0.05185935,-0.07671112,-0.03394156,86.90000000,2.15000000,0.02000000
805,0,-0.03200000,0.99400000,0.05400000,0.10000000,-0.16000000,-0.05000000,-0.05175550,-0.07687726,-0.03399348,86.90000000,2.15000000,0.02000000
806,0,-0.03600000,1.00100000,0.05300000,-0.06000000,-0.03000000,-0.12000000,-0.05181728,-0.07690815,-0.03411703,86.90000000,2.15000000,0.02000000
807,0,-0.03800000,0.99700000,0.05500000,0.14000000,0.06000000,-0.16000000,-0.05167614,-0.07684766,-0.03427833,86.90000000,2.15000000,0.02000000
808,0,-0.03900000,0.99800000,0.05000000,0.33000000,-0.02000000,-0.22000000,-0.05134873,-0.07686751,-0.03449661,86.90000000,2.15000000,0.02000000
809,0,-0.03400000,0.99600000,0.05600000,-0.33000000,-0.11000000,-0.05000000,-0.06995897,-0.08307092,-0.03731634,86.90000000,2.15000000,0.02000000
810,0,-0.03800000,0.99800000,0.05100000,0.03000000,0.13000000,-0.02000000,-0.06992801,-0.08293677,-0.03733698,86.90000000,2.15000000,0.02000000
811,0,-0.03100000,0.99600000,0.05300000,-0.08000000,0.09000000,-0.05000000,-0.07001763,-0.08283595,-0.03739299,86.90000000,2.15000000,0.02000000
812,0,-0.03900000,0.99800000,0.05100000,-0.14000000,-0.05000000,0.06000000,-0.07015870,-0.08288633,-0.03733253,86.90000000,2.15000000,0.02000000
813,0,-0.04100000,1.00000000,0.05200000,-0.16000000,-0.11000000,-0.06000000,-0.07031764,-0.08299560,-0.03739213,86.90000000,2.15000000,0.02000000
814,0,-0.03800000,0.99900000,0.05400000,-0.04000000,0.21000000,-0.11000000,-0.07035726,-0.08278760,-0.03750108,86.90000000,2.15000000,0.02000000
815,0,-0.03500000,0.99700000,0.05300000,-0.02000000,0.03000000,0.02000000,-0.07146555,-0.08112516,-0.03639279,86.90000000,2.15000000,0.02000000
816,0,-0.03700000,0.99400000,0.05400000,-0.00000000,0.08000000,0.05000000,-0.07146555,-0.08104295,-0.03634141,86.90000000,2.15000000,0.02000000
817,0,-0.04000000,0.99800000,0.05600000,-0.06000000,-0.10000000,0.06000000,-0.07152449,-0.08114118,-0.03628247,86.90000000,2.15000000,0.02000000
818,0,-0.03800000,0.99300000,0.05500000,0.08000000,0.11000000,-0.18000000,-0.07144424,-0.08103084,-0.03646303,86.90000000,2.15000000,0.02000000
819,0,-0.03600000,0.99500000,0.05600000,0.00000000,0.03000000,0.21000000,-0.07144424,-0.08100087,-0.03625327,86.90000000,2.15000000,0.02000000
820,0,-0.03700000,0.99600000,0.05200000,0.06000000,-0.07000000,-0.17000000,-0.07138437,-0.08107073,-0.03642291,86.91000000,2.15000000,0.02000000
821,0,-0.03800000,0.99900000,0.05700000,0.13000000,-0.20000000,-0.00000000,-0.06416244,-0.09218139,-0.03642291,86.91000000,2.15000000,0.02000000
822,0,-0.03500000,1.00000000,0.05200000,-0.06000000,-0.22000000,0.22000000,-0.06422464,-0.09240947,-0.03619483,86.90000000,2.15000000,0.02000000
823,0,-0.03300000,0.99400000,0.05500000,0.09000000,0.00000000,-0.42000000,-0.06413573,-0.09240947,-0.03660974,86.90000000,2.15000000,0.02000000
824,0,-0.03800000,0.99300000,0.05400000,-0.01000000,-0.03000000,0.01000000,-0.06414583,-0.09243976,-0.03659964,86.90000000,2.15000000,0.02000000
825,0,-0.03500000,1.00200000,0.05400000,0.07000000,0.05000000,-0.24000000,-0.06407591,-0.09238982,-0.03683936,86.90000000,2.15000000,0.02000000
826,0,-0.03600000,0.99900000,0.05400000,-0.02000000,0.18000000,-0.04000000,-0.06409590,-0.09220990,-0.03687934,86.90000000,2.15000000,0.02000000
827,0,-0.03800000,0.99800000,0.05400000,-0.12000000,-0.02000000,-0.17000000,-0.07087923,-0.09334046,-0.04648905,86.90000000,2.15000000,0.02000000
828,0,-0.03600000,1.00100000,0.05400000,-0.17000000,-0.02000000,-0.06000000,-0.07105430,-0.09336105,-0.04655084,86.90000000,2.16000000,0.02000000
829,0,-0.03900000,0.99500000,0.05400000,0.20000000,-0.01000000,0.11000000,-0.07085153,-0.09337119,-0.04643932,86.90000000,2.16000000,0.02000000
830,0,-0.04100000,0.99900000,0.05100000,0.05000000,0.34000000,0.17000000,-0.07080156,-0.09303143,-0.04626943,86.90000000,2.15000000,0.02000000
831,0,-0.04000000,0.99600000,0.05500000,-0.05000000,0.05000000,-0.14000000,-0.07085082,-0.09298218,-0.04640734,86.90000000,2.16000000,0.02000000
832,0,-0.03900000,0.99600000,0.05500000,-0.13000000,0.07000000,0.14000000,-0.07097924,-0.09291302,-0.04626903,86.90000000,2.16000000,0.02000000
833,0,-0.04000000,1.00000000,0.05200000,-0.06000000,-0.02000000,-0.06000000,-0.07431507,-0.09402497,-0.04960486,86.90000000,2.16000000,0.02000000
834,0,-0.03900000,1.00100000,0.05500000,-0.03000000,0.05000000,-0.20000000,-0.07434696,-0.09397182,-0.04981746,86.90000000,2.16000000,0.02000000
835,0,-0.03900000,1.00000000,0.05700000,0.05000000,-0.02000000,0.00000000,-0.07429607,-0.09399217,-0.04981746,86.90000000,2.16000000,0.03000000
836,0,-0.03500000,0.99500000,0.05400000,0.05000000,0.14000000,0.17000000,-0.07424622,-0.09385257,-0.04964794,86.90000000,2.15000000,0.02000000
