Measurement Count,IMU_MODE,Accel_X,Accel_Y,Accel_Z,Gyro_X,Gyro_Y,Gyro_Z,X_DEL_ANG,Y_DEL_ANG,Z_DEL_ANG,ROLL,PITCH,HEADING
1,0,0.17200000,-0.62400000,0.76400000,0.16000000,0.08000000,-0.03000000,0.04851766,0.02425883,-0.00909706,0.00000000,0.00000000,-0.00000000
2,0,0.16500000,-0.62500000,0.76400000,-0.05000000,0.04000000,0.06000000,0.04846603,0.02430014,-0.00903510,-38.95000000,-9.63000000,0.03000000
3,0,0.17100000,-0.62500000,0.76200000,0.12000000,0.16000000,-0.06000000,0.04858589,0.02445995,-0.00909503,-39.03000000,-9.65000000,0.04000000
4,0,0.16600000,-0.61900000,0.76600000,0.05000000,-0.07000000,-0.17000000,0.04863568,0.02439025,-0.00926431,-39.01000000,-9.59000000,0.04000000
5,0,0.17000000,-0.62100000,0.76500000,0.02000000,-0.07000000,0.07000000,0.04865604,0.02431898,-0.00919304,-39.04000000,-9.62000000,0.05000000
6,0,0.17100000,-0.61900000,0.76700000,-0.10000000,0.07000000,-0.00000000,0.04855456,0.02439002,-0.00919304,-39.03000000,-9.64000000,0.04000000
7,0,0.17400000,-0.62400000,0.76300000,-0.16000000,0.09000000,0.02000000,0.04839417,0.02448024,-0.00917299,-39.03000000,-9.68000000,0.04000000
8,0,0.17000000,-0.62600000,0.76800000,0.06000000,0.16000000,-0.04000000,0.04845450,0.02464112,-0.00921321,-39.04000000,-9.68000000,0.05000000
9,0,0.17100000,-0.62400000,0.76700000,0.11000000,0.16000000,0.11000000,0.04856537,0.02480238,-0.00910234,-39.02000000,-9.68000000,0.04000000
10,0,0.16800000,-0.61900000,0.76600000,-0.05000000,-0.35000000,-0.03000000,0.04851510,0.02445045,-0.00913250,-39.02000000,-9.68000000,0.04000000
11,0,0.17200000,-0.62400000,0.75900000,-0.24000000,-0.08000000,-0.21000000,0.04826719,0.02436782,-0.00934942,-39.04000000,-9.69000000,0.05000000
12,0,0.16800000,-0.62000000,0.76200000,-0.23000000,-0.19000000,0.22000000,0.04799189,0.02414039,-0.00908609,-39.04000000,-9.71000000,0.05000000
13,0,0.16200000,-0.62100000,0.76400000,0.01000000,0.01000000,-0.22000000,0.04800328,0.02415178,-0.00933667,-39.04000000,-9.70000000,0.05000000
14,0,0.16900000,-0.62000000,0.76500000,-0.03000000,-0.28000000,0.01000000,0.04797055,0.02384634,-0.00932577,-39.04000000,-9.70000000,0.05000000
15,0,0.16700000,-0.62400000,0.76500000,-0.11000000,0.02000000,0.05000000,0.04785473,0.02386740,-0.00927312,-39.05000000,-9.69000000,0.05000000
16,0,0.17100000,-0.62000000,0.76100000,-0.09000000,-0.10000000,0.25000000,0.04776001,0.02376215,-0.00901000,-39.06000000,-9.69000000,0.05000000
17,0,0.16600000,-0.62700000,0.76500000,-0.04000000,0.01000000,-0.08000000,0.04771299,0.02377390,-0.00910402,-39.06000000,-9.70000000,0.05000000
18,0,0.16600000,-0.62400000,0.76200000,0.21000000,0.04000000,0.06000000,0.04793422,0.02381604,-0.00904081,-39.06000000,-9.69000000,0.05000000
19,0,0.16800000,-0.62200000,0.76400000,0.19000000,-0.02000000,0.09000000,0.04829446,0.02377812,-0.00887017,-39.05000000,-9.69000000,0.05000000
20,0,0.16400000,-0.62200000,0.76400000,-0.01000000,-0.16000000,-0.20000000,0.04827868,0.02352573,-0.00918567,-39.05000000,-9.69000000,0.05000000
21,0,0.16800000,-0.62700000,0.76800000,0.11000000,0.04000000,0.06000000,0.04849139,0.02360307,-0.00906965,-39.05000000,-9.69000000,0.05000000
22,0,0.17300000,-0.61800000,0.76500000,0.05000000,-0.04000000,-0.12000000,0.04855448,0.02355260,-0.00922106,-39.05000000,-9.69000000,0.05000000
23,0,0.17200000,-0.62200000,0.76500000,-0.18000000,0.23000000,0.07000000,0.04832336,0.02384792,-0.00913119,-39.05000000,-9.71000000,0.05000000
24,0,0.17000000,-0.62100000,0.76800000,-0.19000000,0.08000000,0.18000000,0.04811116,0.02393727,-0.00893015,-39.05000000,-9.71000000,0.05000000
25,0,0.16500000,-0.61900000,0.76500000,-0.27000000,0.01000000,0.01000000,0.04781379,0.02394828,-0.00891914,-39.06000000,-9.71000000,0.05000000
26,0,0.17000000,-0.62300000,0.76800000,0.31000000,0.07000000,0.03000000,0.04815935,0.02402631,-0.00888570,-39.06000000,-9.71000000,0.05000000
27,0,0.16500000,-0.61700000,0.76200000,-0.15000000,-0.15000000,0.01000000,0.04799454,0.02386150,-0.00887471,-39.06000000,-9.71000000,0.05000000
28,0,0.16500000,-0.62400000,0.76400000,-0.01000000,-0.20000000,0.08000000,0.04798334,0.02363741,-0.00878508,-39.06000000,-9.71000000,0.05000000
29,0,0.16100000,-0.62100000,0.76400000,0.17000000,-0.03000000,0.28000000,0.05037712,0.02321498,-0.00484237,-39.06000000,-9.71000000,0.05000000
30,0,0.16300000,-0.61900000,0.76500000,-0.14000000,0.34000000,-0.03000000,0.05021362,0.02361206,-0.00487740,-39.06000000,-9.70000000,0.05000000
31,0,0.16600000,-0.62300000,0.76400000,-0.13000000,0.26000000,-0.06000000,0.05005857,0.02392215,-0.00494896,-39.07000000,-9.69000000,0.05000000
32,0,0.16700000,-0.61800000,0.76500000,-0.05000000,-0.21000000,0.04000000,0.05000205,0.02368476,-0.00490374,-39.07000000,-9.69000000,0.05000000
33,0,0.16800000,-0.62200000,0.76500000,-0.16000000,-0.13000000,-0.03000000,0.04980749,0.02352667,-0.00494023,-39.07000000,-9.69000000,0.05000000
34,0,0.17100000,-0.62500000,0.76400000,0.08000000,0.09000000,-0.24000000,0.04989348,0.02362341,-0.00519820,-39.07000000,-9.69000000,0.05000000
35,0,0.16700000,-0.62000000,0.76600000,-0.11000000,-0.03000000,-0.26000000,0.04386457,0.02197917,-0.01944834,-39.07000000,-9.69000000,0.05000000
36,0,0.16700000,-0.62700000,0.76500000,0.32000000,-0.11000000,0.04000000,0.04420381,0.02186255,-0.01940594,-39.07000000,-9.69000000,0.05000000
37,0,0.16800000,-0.62000000,0.76300000,0.04000000,0.35000000,0.16000000,0.04424408,0.02221498,-0.01924483,-39.07000000,-9.69000000,0.05000000
38,0,0.16500000,-0.62300000,0.76000000,0.02000000,-0.08000000,0.21000000,0.04426408,0.02213500,-0.01903487,-39.07000000,-9.69000000,0.05000000
39,0,0.16700000,-0.62100000,0.76500000,-0.05000000,-0.14000000,0.05000000,0.04421279,0.02199139,-0.01898358,-39.08000000,-9.69000000,0.05000000
40,0,0.16500000,-0.62100000,0.76600000,-0.11000000,0.18000000,0.23000000,0.04410211,0.02217251,-0.01875215,-39.07000000,-9.69000000,0.05000000
41,0,0.17100000,-0.61600000,0.76400000,0.04000000,-0.33000000,-0.18000000,0.04635383,0.00359579,-0.02888491,-39.07000000,-9.69000000,0.05000000
42,0,0.16900000,-0.62200000,0.76600000,0.08000000,0.13000000,-0.07000000,0.04643746,0.00373168,-0.02895808,-39.08000000,-9.69000000,0.05000000
43,0,0.16900000,-0.62100000,0.76700000,-0.02000000,0.00000000,-0.12000000,0.04641684,0.00373168,-0.02908178,-39.08000000,-9.69000000,0.05000000
44,0,0.16600000,-0.62200000,0.76800000,-0.12000000,-0.03000000,0.18000000,0.04629226,0.00370053,-0.02889491,-39.08000000,-9.69000000,0.05000000
45,0,0.16400000,-0.62000000,0.76800000,-0.18000000,-0.23000000,0.07000000,0.04611311,0.00347162,-0.02882524,-39.08000000,-9.68000000,0.05000000
46,0,0.16600000,-0.61800000,0.76800000,0.02000000,0.21000000,0.19000000,0.04613330,0.00368363,-0.02863342,-39.08000000,-9.68000000,0.05000000
47,0,0.16600000,-0.62700000,0.76300000,0.07000000,-0.21000000,0.03000000,0.05002215,-0.00798291,-0.02696677,-39.08000000,-9.68000000,0.05000000
48,0,0.16900000,-0.62200000,0.76800000,-0.03000000,0.16000000,-0.00000000,0.04998890,-0.00780555,-0.02696677,-39.08000000,-9.68000000,0.06000000
49,0,0.16300000,-0.62200000,0.76200000,-0.08000000,-0.20000000,0.02000000,0.04990765,-0.00800865,-0.02694646,-39.08000000,-9.68000000,0.06000000
50,0,0.16200000,-0.62200000,0.76600000,-0.25000000,-0.03000000,-0.07000000,0.04965210,-0.00803932,-0.02701801,-39.09000000,-9.68000000,0.06000000
51,0,0.16400000,-0.62200000,0.76400000,-0.22000000,-0.09000000,-0.19000000,0.04943273,-0.00812907,-0.02720748,-39.09000000,-9.68000000,0.06000000
52,0,0.17200000,-0.62200000,0.76500000,-0.10000000,0.03000000,-0.03000000,0.04933341,-0.00809927,-0.02723727,-39.09000000,-9.68000000,0.06000000
53,0,0.17000000,-0.62300000,0.77000000,-0.14000000,-0.08000000,0.02000000,0.04158826,-0.01252507,-0.02613082,-39.09000000,-9.68000000,0.06000000
54,0,0.16200000,-0.62400000,0.76500000,0.05000000,-0.19000000,0.14000000,0.04164037,-0.01272310,-0.02598491,-39.09000000,-9.68000000,0.06000000
55,0,0.16200000,-0.62200000,0.76700000,0.31000000,-0.08000000,-0.25000000,0.04194883,-0.01280270,-0.02623366,-39.09000000,-9.68000000,0.06000000
56,0,0.16700000,-0.62200000,0.76800000,0.04000000,0.02000000,-0.20000000,0.04198897,-0.01278263,-0.02643434,-39.09000000,-9.68000000,0.06000000
57,0,0.16200000,-0.62500000,0.76600000,-0.27000000,0.01000000,-0.07000000,0.04171922,-0.01277264,-0.02650427,-39.09000000,-9.68000000,0.06000000
58,0,0.16800000,-0.62300000,0.76400000,-0.09000000,-0.12000000,-0.11000000,0.04162984,-0.01289182,-0.02661352,-39.09000000,-9.68000000,0.06000000
59,0,0.16900000,-0.62500000,0.76500000,0.36000000,0.19000000,0.25000000,0.06197114,-0.00215612,-0.01248761,-39.09000000,-9.68000000,0.06000000
60,0,0.16600000,-0.62100000,0.76500000,-0.08000000,0.14000000,0.05000000,0.06188775,-0.00201018,-0.01243548,-39.09000000,-9.68000000,0.06000000
61,0,0.16900000,-0.62200000,0.77200000,0.46000000,0.16000000,-0.00000000,0.06235599,-0.00184731,-0.01243548,-39.09000000,-9.68000000,0.06000000
62,0,0.17000000,-0.61800000,0.76500000,-0.10000000,0.20000000,0.16000000,0.06225620,-0.00164774,-0.01227582,-39.09000000,-9.68000000,0.06000000
63,0,0.16800000,-0.62500000,0.76300000,0.09000000,-0.15000000,0.02000000,0.06234521,-0.00179610,-0.01225604,-39.09000000,-9.68000000,0.06000000
64,0,0.17000000,-0.62100000,0.76400000,0.18000000,0.02000000,0.12000000,0.06252320,-0.00177632,-0.01213738,-39.09000000,-9.68000000,0.06000000
65,0,0.17200000,-0.62200000,0.76500000,0.13000000,-0.16000000,-0.17000000,0.06974327,-0.01066256,-0.02157901,-39.09000000,-9.68000000,0.06000000
66,0,0.16500000,-0.62100000,0.76200000,-0.04000000,-0.09000000,-0.06000000,0.06970144,-0.01075668,-0.02164176,-39.09000000,-9.68000000,0.06000000
67,0,0.16500000,-0.62300000,0.76000000,0.02000000,-0.03000000,-0.25000000,0.06972166,-0.01078701,-0.02189451,-39.10000000,-9.68000000,0.06000000
68,0,0.16300000,-0.61800000,0.76400000,0.01000000,0.33000000,0.13000000,0.06973166,-0.01045708,-0.02176453,-39.10000000,-9.68000000,0.06000000
69,0,0.17200000,-0.62300000,0.76600000,0.10000000,0.13000000,-0.21000000,0.06983116,-0.01032773,-0.02197349,-39.10000000,-9.68000000,0.06000000
70,0,0.16400000,-0.62400000,0.76600000,-0.02000000,0.27000000,0.29000000,0.06981132,-0.01005984,-0.02168576,-39.10000000,-9.68000000,0.06000000
71,0,0.16300000,-0.62900000,0.76700000,0.00000000,0.22000000,-0.08000000,0.06981132,0.00219210,-0.02614101,-39.10000000,-9.68000000,0.06000000
72,0,0.16900000,-0.62700000,0.76300000,-0.01000000,-0.03000000,-0.35000000,0.06980086,0.00216074,-0.02650688,-39.10000000,-9.68000000,0.06000000
73,0,0.17100000,-0.62400000,0.77000000,-0.17000000,-0.03000000,-0.00000000,0.06962575,0.00212983,-0.02650688,-39.10000000,-9.68000000,0.06000000
74,0,0.16700000,-0.62700000,0.76500000,-0.20000000,-0.15000000,-0.15000000,0.06942417,0.00197865,-0.02665806,-39.10000000,-9.68000000,0.06000000
75,0,0.16300000,-0.62300000,0.76600000,0.01000000,-0.11000000,0.03000000,0.06943416,0.00186880,-0.02662811,-39.10000000,-9.68000000,0.06000000
76,0,0.16700000,-0.62100000,0.76300000,0.01000000,0.05000000,0.12000000,0.06944412,0.00191860,-0.02650859,-39.10000000,-9.68000000,0.07000000
77,0,0.16300000,-0.62100000,0.76400000,0.09000000,-0.10000000,0.02000000,0.07450949,-0.00370959,-0.02538295,-39.10000000,-9.68000000,0.06000000
78,0,0.16800000,-0.61500000,0.76400000,0.02000000,-0.24000000,-0.04000000,0.07453065,-0.00396356,-0.02542528,-39.10000000,-9.68000000,0.07000000
79,0,0.16600000,-0.62200000,0.76600000,-0.04000000,0.04000000,0.02000000,0.07449000,-0.00392291,-0.02540495,-39.10000000,-9.68000000,0.06000000
80,0,0.16800000,-0.62000000,0.76400000,0.40000000,-0.01000000,0.41000000,0.07489183,-0.00393295,-0.02499308,-39.10000000,-9.68000000,0.06000000
81,0,0.16600000,-0.62100000,0.76300000,0.15000000,-0.04000000,-0.15000000,0.07504037,-0.00397256,-0.02514162,-39.10000000,-9.68000000,0.06000000
82,0,0.16600000,-0.62000000,0.76300000,-0.19000000,0.05000000,-0.05000000,0.07485050,-0.00392260,-0.02519159,-39.10000000,-9.68000000,0.06000000
83,0,0.17100000,-0.62800000,0.76500000,-0.11000000,0.05000000,0.06000000,0.06874393,-0.00114689,-0.02186074,-39.10000000,-9.68000000,0.07000000
84,0,0.16600000,-0.62400000,0.76600000,-0.28000000,0.08000000,0.07000000,0.06844784,-0.00106229,-0.02178671,-39.10000000,-9.68000000,0.07000000
85,0,0.17000000,-0.61800000,0.76500000,0.03000000,-0.04000000,-0.01000000,0.06847779,-0.00110222,-0.02179669,-39.10000000,-9.68000000,0.07000000
86,0,0.16600000,-0.62900000,0.76300000,0.00000000,0.01000000,-0.24000000,0.06847779,-0.00109234,-0.02203390,-39.10000000,-9.68000000,0.07000000
87,0,0.16600000,-0.61600000,0.76700000,-0.06000000,0.08000000,-0.26000000,0.06841860,-0.00101342,-0.02229037,-39.10000000,-9.68000000,0.06000000
88,0,0.17000000,-0.62500000,0.76800000,-0.10000000,0.08000000,0.08000000,0.06831910,-0.00093382,-0.02221077,-39.10000000,-9.68000000,0.06000000
89,0,0.17200000,-0.62300000,0.76300000,-0.23000000,0.12000000,0.17000000,0.05484684,0.00609518,-0.01225302,-39.10000000,-9.68000000,0.06000000
90,0,0.16700000,-0.61900000,0.76500000,-0.12000000,0.02000000,0.03000000,0.05472043,0.00611625,-0.01222141,-39.10000000,-9.68000000,0.06000000
91,0,0.16900000,-0.62200000,0.76500000,0.05000000,-0.01000000,0.12000000,0.05477155,0.00610602,-0.01209872,-39.10000000,-9.68000000,0.06000000
92,0,0.16900000,-0.62100000,0.76400000,0.08000000,0.05000000,0.18000000,0.05485150,0.00615599,-0.01191885,-39.10000000,-9.68000000,0.07000000
93,0,0.16800000,-0.62500000,0.76400000,0.11000000,0.08000000,-0.23000000,0.05496378,0.00623765,-0.01215362,-39.10000000,-9.68000000,0.07000000
94,0,0.16700000,-0.62200000,0.76200000,-0.09000000,-0.02000000,-0.12000000,0.05487357,0.00621760,-0.01227391,-39.10000000,-9.68000000,0.06000000
95,0,0.16900000,-0.62200000,0.76200000,0.10000000,0.19000000,0.31000000,0.05497333,0.00640716,-0.01196464,-39.10000000,-9.68000000,0.07000000
96,0,0.16800000,-0.62300000,0.76200000,-0.16000000,0.06000000,-0.24000000,0.04594751,0.00979184,-0.02550337,-39.10000000,-9.68000000,0.06000000
97,0,0.17000000,-0.62100000,0.76400000,-0.18000000,0.02000000,-0.00000000,0.04575734,0.00981297,-0.02550337,-39.10000000,-9.68000000,0.06000000
98,0,0.16700000,-0.62200000,0.76500000,-0.12000000,0.06000000,-0.27000000,0.04563642,0.00987343,-0.02577544,-39.10000000,-9.68000000,0.06000000
99,0,0.16800000,-0.62000000,0.76600000,0.19000000,-0.07000000,-0.10000000,0.04582701,0.00980321,-0.02587575,-39.10000000,-9.68000000,0.06000000
100,0,0.16800000,-0.62000000,0.76600000,0.09000000,0.13000000,0.21000000,0.04591723,0.00993352,-0.02566524,-39.10000000,-9.68000000,0.06000000
101,0,0.16800000,-0.62600000,0.76600000,-0.17000000,0.02000000,0.24000000,0.04574512,0.00995377,-0.02542226,-39.09000000,-9.68000000,0.06000000
102,0,0.16600000,-0.61900000,0.76800000,0.06000000,-0.08000000,-0.03000000,0.04907545,0.00551332,-0.02708743,-39.09000000,-9.68000000,0.06000000
103,0,0.17100000,-0.62200000,0.76400000,0.14000000,-0.11000000,-0.09000000,0.04922557,0.00539537,-0.02718393,-39.09000000,-9.68000000,0.06000000
104,0,0.16800000,-0.62000000,0.76700000,0.04000000,-0.18000000,-0.10000000,0.04926615,0.00521279,-0.02728537,-39.09000000,-9.68000000,0.06000000
105,0,0.16200000,-0.62600000,0.76300000,0.00000000,-0.11000000,-0.06000000,0.04926615,0.00510124,-0.02734621,-39.09000000,-9.68000000,0.06000000
106,0,0.16800000,-0.62200000,0.76300000,-0.01000000,0.10000000,-0.14000000,0.04925452,0.00521753,-0.02750902,-39.09000000,-9.68000000,0.06000000
107,0,0.17000000,-0.62400000,0.76700000,-0.06000000,-0.02000000,-0.01000000,0.04919228,0.00519678,-0.02751939,-39.10000000,-9.68000000,0.07000000
108,0,0.16500000,-0.62500000,0.76500000,-0.09000000,0.10000000,-0.09000000,0.04420877,0.01073402,-0.03250290,-39.10000000,-9.68000000,0.07000000
109,0,0.17000000,-0.62000000,0.76700000,-0.02000000,0.07000000,0.03000000,0.04418795,0.01080691,-0.03247166,-39.10000000,-9.68000000,0.07000000
110,0,0.16700000,-0.62000000,0.76800000,-0.18000000,0.13000000,-0.07000000,0.04400953,0.01093576,-0.03254105,-39.10000000,-9.68000000,0.07000000
111,0,0.17000000,-0.62400000,0.76300000,0.13000000,-0.05000000,-0.00000000,0.04413879,0.01088605,-0.03254105,-39.10000000,-9.68000000,0.07000000
112,0,0.17000000,-0.61900000,0.76600000,-0.07000000,0.30000000,-0.01000000,0.04406932,0.01118377,-0.03255097,-39.10000000,-9.68000000,0.07000000
113,0,0.16900000,-0.62000000,0.76700000,-0.17000000,-0.18000000,-0.20000000,0.04389899,0.01100342,-0.03275136,-39.10000000,-9.68000000,0.07000000
114,0,0.16800000,-0.62000000,0.76600000,-0.23000000,-0.04000000,-0.13000000,0.03090946,0.00874437,-0.04009327,-39.10000000,-9.69000000,0.07000000
115,0,0.16500000,-0.62500000,0.76800000,0.05000000,-0.00000000,-0.06000000,0.03096156,0.00874437,-0.04015578,-39.10000000,-9.69000000,0.07000000
116,0,0.16900000,-0.62100000,0.76400000,-0.33000000,-0.08000000,-0.18000000,0.03062754,0.00866340,-0.04033798,-39.10000000,-9.69000000,0.06000000
117,0,0.16900000,-0.62400000,0.76800000,0.10000000,0.21000000,0.21000000,0.03072702,0.00887230,-0.04012907,-39.10000000,-9.69000000,0.06000000
118,0,0.17000000,-0.62600000,0.76300000,0.05000000,-0.04000000,0.30000000,0.03077732,0.00883206,-0.03982728,-39.10000000,-9.69000000,0.06000000
119,0,0.16700000,-0.62200000,0.76500000,0.02000000,0.02000000,-0.35000000,0.03079746,0.00885220,-0.04017971,-39.10000000,-9.69000000,0.06000000
120,0,0.16800000,-0.61900000,0.76400000,0.13000000,0.11000000,-0.27000000,0.03799977,0.01494646,-0.05513835,-39.10000000,-9.69000000,0.06000000
121,0,0.17000000,-0.62000000,0.76500000,0.19000000,0.06000000,-0.11000000,0.03820110,0.01501004,-0.05525491,-39.10000000,-9.69000000,0.06000000
122,0,0.16700000,-0.62400000,0.76200000,0.06000000,-0.08000000,-0.09000000,0.03826127,0.01492981,-0.05534517,-39.10000000,-9.69000000,0.06000000
123,0,0.16600000,-0.62300000,0.76600000,0.14000000,-0.21000000,0.16000000,0.03840221,0.01471840,-0.05518410,-39.10000000,-9.69000000,0.06000000
124,0,0.16800000,-0.62100000,0.76200000,0.06000000,-0.16000000,0.15000000,0.03846373,0.01455435,-0.05503030,-39.09000000,-9.69000000,0.06000000
125,0,0.17000000,-0.61900000,0.76300000,-0.01000000,0.10000000,-0.17000000,0.03845364,0.01465521,-0.05520177,-39.10000000,-9.69000000,0.06000000
126,0,0.16500000,-0.62000000,0.76400000,0.31000000,0.03000000,-0.07000000,0.05568677,0.01632294,-0.05909312,-39.09000000,-9.69000000,0.06000000
127,0,0.17400000,-0.62100000,0.76500000,-0.01000000,-0.12000000,-0.06000000,0.05567629,0.01619721,-0.05915598,-39.09000000,-9.69000000,0.06000000
128,0,0.16800000,-0.62400000,0.76400000,0.03000000,-0.17000000,-0.30000000,0.05570670,0.01602490,-0.05946007,-39.10000000,-9.69000000,0.06000000
129,0,0.16400000,-0.62300000,0.76500000,0.17000000,0.20000000,0.07000000,0.05588023,0.01622905,-0.05938861,-39.10000000,-9.68000000,0.06000000
130,0,0.15800000,-0.62000000,0.76400000,-0.11000000,0.03000000,0.01000000,0.05576923,0.01625932,-0.05937852,-39.10000000,-9.68000000,0.06000000
131,0,0.17100000,-0.61900000,0.76100000,-0.06000000,0.18000000,0.08000000,0.05570929,0.01643916,-0.05929860,-39.10000000,-9.68000000,0.06000000
132,0,0.16900000,-0.62100000,0.76400000,-0.24000000,0.06000000,-0.11000000,0.04218664,0.01981982,-0.06549648,-39.10000000,-9.68000000,0.06000000
133,0,0.17200000,-0.62100000,0.76000000,-0.06000000,0.01000000,-0.09000000,0.04212249,0.01983051,-0.06559270,-39.10000000,-9.68000000,0.06000000
134,0,0.16800000,-0.62100000,0.76600000,0.06000000,-0.04000000,0.02000000,0.04219392,0.01978289,-0.06556889,-39.10000000,-9.68000000,0.06000000
135,0,0.16600000,-0.62700000,0.76300000,0.04000000,-0.08000000,0.02000000,0.04223727,0.01969619,-0.06554722,-39.10000000,-9.68000000,0.06000000
136,0,0.16900000,-0.62800000,0.76300000,-0.11000000,0.00000000,0.05000000,0.04211793,0.01969619,-0.06549297,-39.10000000,-9.68000000,0.06000000
137,0,0.16800000,-0.62400000,0.76100000,-0.08000000,-0.10000000,0.06000000,0.04203104,0.01958758,-0.06542781,-39.10000000,-9.68000000,0.06000000
138,0,0.16900000,-0.62400000,0.76300000,-0.38000000,-0.14000000,-0.19000000,0.02108830,0.01187184,-0.07589917,-39.10000000,-9.68000000,0.06000000
139,0,0.16000000,-0.62400000,0.76600000,-0.03000000,0.07000000,0.09000000,0.02105379,0.01195237,-0.07579563,-39.10000000,-9.68000000,0.06000000
140,0,0.16300000,-0.62600000,0.76100000,-0.01000000,-0.05000000,0.04000000,0.02104355,0.01190118,-0.07575468,-39.10000000,-9.68000000,0.06000000
141,0,0.17400000,-0.62500000,0.76500000,0.17000000,-0.03000000,0.11000000,0.02121655,0.01187065,-0.07564273,-39.10000000,-9.68000000,0.06000000
142,0,0.17100000,-0.62500000,0.76700000,0.10000000,0.01000000,-0.03000000,0.02131703,0.01188069,-0.07567288,-39.10000000,-9.68000000,0.06000000
143,0,0.17400000,-0.62200000,0.76100000,0.03000000,0.00000000,0.39000000,0.02134714,0.01188069,-0.07528147,-39.10000000,-9.68000000,0.06000000
144,0,0.17100000,-0.62000000,0.76300000,-0.20000000,0.01000000,0.30000000,0.01026476,0.01243481,-0.05865789,-39.10000000,-9.68000000,0.06000000
145,0,0.17100000,-0.62100000,0.76900000,-0.04000000,0.19000000,0.03000000,0.01022313,0.01263257,-0.05862667,-39.11000000,-9.68000000,0.06000000
146,0,0.16800000,-0.61900000,0.76600000,0.17000000,-0.10000000,-0.18000000,0.01039131,0.01253364,-0.05880474,-39.11000000,-9.68000000,0.06000000
147,0,0.16900000,-0.61900000,0.76400000,-0.06000000,0.05000000,0.27000000,0.01033059,0.01258423,-0.05853152,-39.11000000,-9.68000000,0.06000000
148,0,0.16700000,-0.62000000,0.76400000,0.07000000,0.07000000,0.14000000,0.01040086,0.01265450,-0.05839098,-39.11000000,-9.68000000,0.06000000
149,0,0.16700000,-0.62500000,0.76500000,0.07000000,0.09000000,0.12000000,0.01047118,0.01274491,-0.05827043,-39.10000000,-9.68000000,0.06000000
150,0,0.16900000,-0.62600000,0.77000000,-0.06000000,-0.11000000,0.15000000,0.00708851,0.00654336,-0.04981377,-39.10000000,-9.68000000,0.06000000
151,0,0.16400000,-0.62400000,0.76600000,-0.06000000,0.03000000,-0.11000000,0.00702601,0.00657461,-0.04992836,-39.10000000,-9.68000000,0.06000000
152,0,0.16700000,-0.62300000,0.76300000,-0.10000000,0.00000000,-0.12000000,0.00692515,0.00657461,-0.05004940,-39.11000000,-9.68000000,0.06000000
153,0,0.17000000,-0.62600000,0.76200000,0.00000000,-0.10000000,0.06000000,0.00692515,0.00647432,-0.04998922,-39.11000000,-9.68000000,0.06000000
154,0,0.17100000,-0.62100000,0.76500000,-0.21000000,-0.06000000,0.00000000,0.00671734,0.00641495,-0.04998922,-39.11000000,-9.68000000,0.06000000
155,0,0.16800000,-0.62200000,0.76400000,-0.03000000,-0.03000000,-0.01000000,0.00668743,0.00638504,-0.04999919,-39.11000000,-9.68000000,0.06000000
156,0,0.16900000,-0.61900000,0.76600000,-0.03000000,-0.14000000,-0.27000000,0.00502139,-0.00138982,-0.06499356,-39.11000000,-9.68000000,0.06000000
157,0,0.16500000,-0.62400000,0.76300000,0.10000000,-0.07000000,-0.24000000,0.00512535,-0.00146260,-0.06524307,-39.11000000,-9.67000000,0.06000000
158,0,0.16700000,-0.62100000,0.76300000,0.03000000,0.12000000,0.05000000,0.00515587,-0.00134050,-0.06519220,-39.11000000,-9.67000000,0.06000000
159,0,0.17100000,-0.62200000,0.76900000,0.08000000,-0.03000000,-0.06000000,0.00523606,-0.00137058,-0.06525234,-39.11000000,-9.67000000,0.06000000
160,0,0.17100000,-0.62200000,0.76200000,0.07000000,-0.17000000,0.06000000,0.00530528,-0.00153868,-0.06519301,-39.11000000,-9.67000000,0.06000000
161,0,0.17100000,-0.62300000,0.76500000,0.13000000,0.29000000,-0.17000000,0.00543401,-0.00125150,-0.06536136,-39.11000000,-9.67000000,0.06000000
162,0,0.16800000,-0.62400000,0.76400000,0.05000000,0.01000000,0.05000000,0.00822190,-0.00069393,-0.06257348,-39.11000000,-9.67000000,0.06000000
163,0,0.16600000,-0.61600000,0.76800000,0.18000000,0.02000000,-0.13000000,0.00843902,-0.00066980,-0.06273029,-39.11000000,-9.67000000,0.06000000
164,0,0.16700000,-0.62200000,0.76300000,-0.06000000,-0.11000000,0.09000000,0.00837698,-0.00078355,-0.06263722,-39.11000000,-9.67000000,0.06000000
165,0,0.16900000,-0.62300000,0.76600000,0.15000000,0.17000000,0.24000000,0.00852805,-0.00061233,-0.06239550,-39.11000000,-9.67000000,0.06000000
166,0,0.16600000,-0.62500000,0.76400000,0.01000000,0.03000000,-0.04000000,0.00853810,-0.00058219,-0.06243569,-39.11000000,-9.67000000,0.06000000
167,0,0.17100000,-0.62500000,0.76600000,-0.01000000,0.18000000,0.07000000,0.00852805,-0.00040133,-0.06236535,-39.11000000,-9.67000000,0.06000000
168,0,0.16600000,-0.62800000,0.76500000,0.24000000,0.16000000,-0.11000000,0.02198318,0.00856876,-0.06853229,-39.11000000,-9.67000000,0.06000000
169,0,0.16600000,-0.62200000,0.76500000,0.05000000,0.26000000,0.15000000,0.02203573,0.00884203,-0.06837463,-39.11000000,-9.67000000,0.06000000
170,0,0.16800000,-0.62400000,0.76400000,-0.01000000,-0.03000000,0.25000000,0.02202572,0.00881199,-0.06812426,-39.11000000,-9.67000000,0.06000000
171,0,0.17000000,-0.62400000,0.76700000,0.01000000,-0.09000000,0.18000000,0.02203562,0.00872293,-0.06794615,-39.11000000,-9.67000000,0.06000000
172,0,0.17100000,-0.62100000,0.76400000,0.15000000,-0.06000000,-0.06000000,0.02218555,0.00866296,-0.06800612,-39.11000000,-9.67000000,0.06000000
173,0,0.16600000,-0.61900000,0.76700000,0.08000000,-0.00000000,0.13000000,0.02226616,0.00866296,-0.06787512,-39.11000000,-9.67000000,0.06000000
174,0,0.16900000,-0.62600000,0.76500000,0.33000000,0.18000000,0.24000000,0.04058506,0.01865509,-0.05455229,-39.11000000,-9.67000000,0.07000000
175,0,0.17000000,-0.61700000,0.76400000,0.16000000,-0.04000000,-0.17000000,0.04075281,0.01861315,-0.05473052,-39.11000000,-9.67000000,0.07000000
176,0,0.17000000,-0.62600000,0.76800000,-0.22000000,0.08000000,0.02000000,0.04053249,0.01869327,-0.05471049,-39.11000000,-9.67000000,0.06000000
177,0,0.16200000,-0.62500000,0.76600000,0.11000000,0.20000000,-0.04000000,0.04064144,0.01889136,-0.05475011,-39.11000000,-9.67000000,0.06000000
178,0,0.17000000,-0.61900000,0.76400000,0.05000000,-0.04000000,-0.00000000,0.04069079,0.01885189,-0.05475011,-39.11000000,-9.67000000,0.07000000
179,0,0.16600000,-0.62400000,0.76500000,-0.02000000,-0.08000000,0.10000000,0.04067059,0.01877108,-0.05464911,-39.11000000,-9.67000000,0.07000000
180,0,0.16900000,-0.62200000,0.76400000,-0.12000000,-0.08000000,-0.03000000,0.03399023,0.01431751,-0.05631920,-39.11000000,-9.67000000,0.07000000
181,0,0.16600000,-0.62000000,0.76800000,-0.09000000,0.26000000,-0.00000000,0.03389452,0.01459401,-0.05631920,-39.11000000,-9.67000000,0.07000000
182,0,0.16800000,-0.62300000,0.76300000,-0.12000000,-0.02000000,-0.21000000,0.03377383,0.01457389,-0.05653040,-39.11000000,-9.67000000,0.07000000
183,0,0.16800000,-0.62400000,0.76700000,0.00000000,-0.15000000,-0.04000000,0.03377383,0.01442414,-0.05657034,-39.11000000,-9.67000000,0.07000000
184,0,0.17000000,-0.62300000,0.76600000,0.02000000,0.11000000,-0.17000000,0.03379372,0.01453357,-0.05673945,-39.11000000,-9.67000000,0.06000000
185,0,0.16700000,-0.62300000,0.76400000,0.06000000,-0.04000000,0.06000000,0.03385406,0.01449335,-0.05667912,-39.11000000,-9.67000000,0.06000000
186,0,0.16400000,-0.62500000,0.76900000,0.05000000,0.07000000,-0.05000000,0.03667136,0.01843757,-0.05949642,-39.11000000,-9.67000000,0.06000000
187,0,0.16700000,-0.62200000,0.76500000,-0.08000000,-0.25000000,0.07000000,0.03658807,0.01817731,-0.05942355,-39.11000000,-9.67000000,0.06000000
188,0,0.16700000,-0.62600000,0.77000000,0.02000000,-0.10000000,-0.05000000,0.03660806,0.01807740,-0.05947350,-39.11000000,-9.67000000,0.06000000
189,0,0.16900000,-0.61900000,0.76600000,-0.06000000,0.07000000,-0.21000000,0.03654863,0.01814674,-0.05968151,-39.11000000,-9.67000000,0.06000000
190,0,0.16600000,-0.62300000,0.77000000,0.22000000,0.01000000,-0.01000000,0.03676958,0.01815678,-0.05969155,-39.11000000,-9.67000000,0.06000000
191,0,0.17400000,-0.62300000,0.77000000,0.14000000,-0.09000000,-0.12000000,0.03691005,0.01806648,-0.05981195,-39.11000000,-9.67000000,0.06000000
192,0,0.16700000,-0.62200000,0.76800000,-0.06000000,-0.14000000,0.09000000,0.03357210,0.01027793,-0.05480503,-39.11000000,-9.67000000,0.06000000
193,0,0.16700000,-0.62100000,0.76500000,0.15000000,0.16000000,0.12000000,0.03374027,0.01045732,-0.05467050,-39.11000000,-9.67000000,0.06000000
194,0,0.16900000,-0.62300000,0.76300000,-0.37000000,0.31000000,0.12000000,0.03335606,0.01077922,-0.05454589,-39.11000000,-9.67000000,0.06000000
195,0,0.17100000,-0.62400000,0.76600000,0.19000000,-0.11000000,-0.12000000,0.03354860,0.01066775,-0.05466749,-39.11000000,-9.67000000,0.06000000
196,0,0.16800000,-0.62100000,0.76500000,-0.02000000,-0.04000000,-0.01000000,0.03352832,0.01062718,-0.05467764,-39.11000000,-9.67000000,0.06000000
197,0,0.16900000,-0.62200000,0.76300000,0.09000000,-0.20000000,0.30000000,0.03361868,0.01042636,-0.05437641,-39.11000000,-9.67000000,0.06000000
198,0,0.16600000,-0.62400000,0.77000000,-0.07000000,-0.05000000,0.07000000,0.02968197,0.00761442,-0.05043970,-39.11000000,-9.67000000,0.06000000
199,0,0.16800000,-0.62900000,0.76400000,-0.23000000,-0.27000000,0.01000000,0.02944291,0.00733379,-0.05042930,-39.11000000,-9.67000000,0.06000000
200,0,0.17300000,-0.61800000,0.76800000,0.04000000,-0.17000000,-0.05000000,0.02948260,0.00716513,-0.05047891,-39.10000000,-9.67000000,0.06000000
201,0,0.16600000,-0.62400000,0.76300000,0.16000000,-0.07000000,0.00000000,0.02964390,0.00709456,-0.05047891,-39.10000000,-9.67000000,0.06000000
202,0,0.17200000,-0.62800000,0.76600000,-0.25000000,0.06000000,-0.17000000,0.02939282,0.00715482,-0.05064965,-39.10000000,-9.67000000,0.06000000
203,0,0.17000000,-0.61800000,0.76400000,-0.02000000,-0.09000000,-0.14000000,0.02937299,0.00706557,-0.05078848,-39.11000000,-9.67000000,0.06000000
204,0,0.16600000,-0.62400000,0.76800000,0.09000000,-0.26000000,-0.20000000,0.03437219,-0.00737656,-0.06189781,-39.11000000,-9.67000000,0.06000000
205,0,0.16900000,-0.62200000,0.76200000,-0.06000000,-0.03000000,0.12000000,0.03430935,-0.00740797,-0.06177214,-39.11000000,-9.67000000,0.06000000
206,0,0.16400000,-0.62200000,0.76800000,-0.09000000,0.07000000,0.00000000,0.03421707,-0.00733620,-0.06177214,-39.11000000,-9.67000000,0.06000000
207,0,0.17100000,-0.62100000,0.76700000,-0.08000000,-0.13000000,0.13000000,0.03412902,-0.00747929,-0.06162906,-39.11000000,-9.67000000,0.06000000
208,0,0.16500000,-0.62000000,0.76300000,0.20000000,0.13000000,0.21000000,0.03433280,-0.00734683,-0.06141509,-39.11000000,-9.67000000,0.06000000
209,0,0.16800000,-0.62000000,0.76600000,-0.24000000,0.19000000,-0.24000000,0.03409159,-0.00715588,-0.06165630,-39.10000000,-9.67000000,0.06000000
210,0,0.16700000,-0.62100000,0.76700000,-0.07000000,0.11000000,-0.13000000,0.03000374,-0.00073211,-0.06924803,-39.11000000,-9.67000000,0.06000000
211,0,0.17200000,-0.62600000,0.76500000,-0.09000000,0.11000000,-0.19000000,0.02990970,-0.00061718,-0.06944655,-39.11000000,-9.67000000,0.06000000
212,0,0.16200000,-0.62200000,0.76500000,-0.23000000,0.02000000,0.14000000,0.02968073,-0.00059727,-0.06930718,-39.11000000,-9.67000000,0.06000000
213,0,0.16600000,-0.62300000,0.76300000,0.05000000,-0.04000000,0.01000000,0.02973085,-0.00063736,-0.06929715,-39.11000000,-9.68000000,0.06000000
214,0,0.16600000,-0.62100000,0.76300000,-0.08000000,0.04000000,-0.07000000,0.02965076,-0.00059731,-0.06936724,-39.11000000,-9.67000000,0.06000000
215,0,0.16700000,-0.62400000,0.76200000,-0.11000000,0.01000000,0.32000000,0.02953978,-0.00058723,-0.06904441,-39.11000000,-9.67000000,0.06000000
216,0,0.16500000,-0.62100000,0.76200000,-0.15000000,-0.08000000,0.12000000,0.02939003,-0.00066710,-0.06892460,-39.11000000,-9.67000000,0.06000000
217,0,0.16700000,-0.62200000,0.76300000,-0.05000000,0.09000000,0.21000000,0.02660917,0.00433845,-0.05724499,-39.11000000,-9.67000000,0.06000000
218,0,0.16700000,-0.62200000,0.76300000,0.06000000,0.03000000,0.03000000,0.02667286,0.00437030,-0.05721315,-39.11000000,-9.67000000,0.06000000
219,0,0.16800000,-0.62300000,0.76200000,-0.18000000,-0.22000000,-0.05000000,0.02648968,0.00414641,-0.05726403,-39.11000000,-9.67000000,0.06000000
220,0,0.16700000,-0.62400000,0.76200000,-0.06000000,0.01000000,0.03000000,0.02642823,0.00415665,-0.05723331,-39.11000000,-9.67000000,0.06000000
221,0,0.16600000,-0.61800000,0.76700000,-0.04000000,-0.03000000,0.06000000,0.02638767,0.00412623,-0.05717246,-39.11000000,-9.67000000,0.06000000
222,0,0.16400000,-0.61900000,0.76600000,-0.15000000,-0.03000000,-0.28000000,0.02623670,0.00409603,-0.05745427,-39.10000000,-9.67000000,0.06000000
223,0,0.16700000,-0.62400000,0.76900000,0.12000000,-0.22000000,0.05000000,0.03298815,-0.00828163,-0.05464117,-39.10000000,-9.67000000,0.06000000
224,0,0.16400000,-0.62400000,0.76600000,-0.08000000,0.28000000,-0.19000000,0.03290457,-0.00798907,-0.05483969,-39.11000000,-9.67000000,0.06000000
225,0,0.16900000,-0.62200000,0.76500000,-0.16000000,0.03000000,-0.18000000,0.03274601,-0.00795934,-0.05501806,-39.11000000,-9.67000000,0.06000000
226,0,0.16600000,-0.61900000,0.76000000,0.09000000,0.02000000,-0.03000000,0.03283687,-0.00793915,-0.05504835,-39.11000000,-9.67000000,0.06000000
227,0,0.16900000,-0.62500000,0.76700000,0.17000000,0.19000000,0.06000000,0.03300728,-0.00774869,-0.05498820,-39.10000000,-9.67000000,0.06000000
228,0,0.17000000,-0.61600000,0.76300000,-0.00000000,0.24000000,-0.03000000,0.03300728,-0.00750903,-0.05501816,-39.10000000,-9.67000000,0.06000000
229,0,0.16800000,-0.62500000,0.76600000,-0.04000000,0.08000000,-0.08000000,0.03078618,-0.00306683,-0.05946037,-39.10000000,-9.67000000,0.06000000
230,0,0.17300000,-0.62500000,0.76200000,0.07000000,0.03000000,0.07000000,0.03085914,-0.00303556,-0.05938741,-39.10000000,-9.67000000,0.06000000
231,0,0.16500000,-0.62500000,0.76500000,0.02000000,0.00000000,0.15000000,0.03087895,-0.00303556,-0.05923880,-39.11000000,-9.67000000,0.06000000
232,0,0.16800000,-0.62500000,0.76500000,0.08000000,0.09000000,-0.13000000,0.03096357,-0.00294036,-0.05937631,-39.10000000,-9.67000000,0.06000000
233,0,0.17600000,-0.61900000,0.76500000,0.38000000,-0.04000000,0.09000000,0.03134657,-0.00298068,-0.05928559,-39.10000000,-9.68000000,0.06000000
234,0,0.16800000,-0.62300000,0.76300000,-0.15000000,0.16000000,0.06000000,0.03119617,-0.00282025,-0.05922544,-39.10000000,-9.67000000,0.06000000
235,0,0.16800000,-0.62700000,0.76500000,0.02000000,0.10000000,0.21000000,0.03230891,0.00274342,-0.04754172,-39.10000000,-9.67000000,0.06000000
236,0,0.16500000,-0.62400000,0.76800000,0.07000000,0.18000000,-0.08000000,0.03238158,0.00293029,-0.04762477,-39.10000000,-9.67000000,0.06000000
237,0,0.16800000,-0.62300000,0.76400000,0.03000000,-0.11000000,-0.09000000,0.03241187,0.00281924,-0.04771563,-39.11000000,-9.67000000,0.06000000
238,0,0.16800000,-0.62700000,0.76300000,-0.17000000,-0.11000000,0.12000000,0.03223992,0.00270798,-0.04759426,-39.11000000,-9.67000000,0.06000000
239,0,0.16500000,-0.62200000,0.76400000,0.10000000,-0.15000000,-0.19000000,0.03233923,0.00255901,-0.04778295,-39.10000000,-9.67000000,0.06000000
240,0,0.16600000,-0.62100000,0.76500000,0.21000000,0.04000000,0.21000000,0.03254828,0.00259883,-0.04757389,-39.10000000,-9.67000000,0.06000000
241,0,0.16900000,-0.62100000,0.76400000,-0.02000000,0.11000000,-0.18000000,0.03142194,0.00879372,-0.05771099,-39.10000000,-9.67000000,0.06000000
242,0,0.16500000,-0.62700000,0.76200000,0.03000000,0.07000000,-0.18000000,0.03145322,0.00886671,-0.05789868,-39.11000000,-9.67000000,0.06000000
243,0,0.17000000,-0.62100000,0.76700000,0.24000000,0.12000000,0.08000000,0.03170032,0.00899026,-0.05781631,-39.10000000,-9.67000000,0.06000000
244,0,0.17000000,-0.62300000,0.75900000,0.05000000,0.04000000,0.11000000,0.03175085,0.00903068,-0.05770515,-39.10000000,-9.67000000,0.06000000
245,0,0.16900000,-0.62300000,0.76300000,0.06000000,-0.03000000,-0.07000000,0.03181071,0.00900075,-0.05777499,-39.10000000,-9.67000000,0.06000000
246,0,0.16700000,-0.62000000,0.76400000,-0.20000000,0.28000000,0.14000000,0.03161080,0.00928063,-0.05763505,-39.11000000,-9.67000000,0.06000000
247,0,0.16700000,-0.61500000,0.76700000,-0.06000000,-0.04000000,-0.14000000,0.02828162,0.00706118,-0.06540313,-39.11000000,-9.67000000,0.06000000
248,0,0.16600000,-0.62500000,0.76400000,0.00000000,0.07000000,-0.03000000,0.02828162,0.00713413,-0.06543440,-39.11000000,-9.67000000,0.06000000
249,0,0.17100000,-0.62400000,0.75900000,0.05000000,0.07000000,-0.01000000,0.02833235,0.00720515,-0.06544454,-39.11000000,-9.67000000,0.06000000
250,0,0.17200000,-0.62800000,0.76300000,-0.02000000,-0.04000000,-0.01000000,0.02831217,0.00716479,-0.06545464,-39.11000000,-9.67000000,0.06000000
251,0,0.16600000,-0.62400000,0.76800000,-0.09000000,-0.05000000,0.18000000,0.02822107,0.00711418,-0.06527244,-39.11000000,-9.67000000,0.06000000
252,0,0.16900000,-0.61900000,0.76600000,-0.18000000,-0.22000000,0.04000000,0.02803982,0.00689265,-0.06523216,-39.11000000,-9.67000000,0.06000000
253,0,0.16700000,-0.61900000,0.76300000,0.19000000,-0.20000000,-0.01000000,0.03863046,-0.00425539,-0.06578957,-39.11000000,-9.67000000,0.06000000
254,0,0.16500000,-0.62200000,0.76600000,-0.20000000,0.28000000,-0.16000000,0.03842058,-0.00396157,-0.06595747,-39.11000000,-9.67000000,0.06000000
255,0,0.16500000,-0.62400000,0.76600000,-0.00000000,-0.19000000,-0.04000000,0.03842058,-0.00415225,-0.06599761,-39.11000000,-9.67000000,0.06000000
256,0,0.17300000,-0.62400000,0.76000000,-0.24000000,0.08000000,0.10000000,0.03817960,-0.00407192,-0.06589720,-39.11000000,-9.67000000,0.06000000
257,0,0.17000000,-0.62400000,0.76600000,0.18000000,0.01000000,0.03000000,0.03835969,-0.00406192,-0.06586719,-39.11000000,-9.67000000,0.06000000
258,0,0.16600000,-0.62000000,0.76600000,0.04000000,-0.01000000,-0.11000000,0.03839949,-0.00407187,-0.06597661,-39.11000000,-9.67000000,0.06000000
259,0,0.16400000,-0.62600000,0.76400000,0.04000000,-0.05000000,-0.02000000,0.04064867,-0.00688335,-0.06710121,-39.11000000,-9.67000000,0.06000000
260,0,0.17100000,-0.62200000,0.76100000,-0.37000000,-0.20000000,-0.05000000,0.04024144,-0.00710348,-0.06715624,-39.11000000,-9.67000000,0.06000000
261,0,0.16600000,-0.61600000,0.76200000,-0.11000000,-0.07000000,-0.11000000,0.04013059,-0.00717402,-0.06726708,-39.12000000,-9.67000000,0.06000000
262,0,0.16800000,-0.62300000,0.76700000,0.04000000,0.09000000,0.05000000,0.04017036,-0.00708455,-0.06721738,-39.12000000,-9.67000000,0.06000000
263,0,0.16600000,-0.62300000,0.76500000,-0.12000000,0.16000000,0.22000000,0.04005161,-0.00692622,-0.06699968,-39.12000000,-9.67000000,0.06000000
264,0,0.16900000,-0.62200000,0.76300000,0.18000000,0.09000000,0.05000000,0.04023213,-0.00683596,-0.06694954,-39.12000000,-9.67000000,0.06000000
265,0,0.16700000,-0.61900000,0.76300000,0.04000000,0.04000000,-0.03000000,0.04245187,-0.00461622,-0.06861434,-39.12000000,-9.67000000,0.06000000
266,0,0.17000000,-0.62100000,0.76200000,-0.07000000,0.34000000,0.13000000,0.04237811,-0.00425798,-0.06847736,-39.12000000,-9.67000000,0.06000000
267,0,0.17100000,-0.62100000,0.76800000,-0.03000000,-0.04000000,0.33000000,0.04234803,-0.00429808,-0.06814649,-39.12000000,-9.67000000,0.06000000
268,0,0.17000000,-0.62200000,0.76400000,-0.03000000,-0.11000000,-0.08000000,0.04231825,-0.00440730,-0.06822592,-39.12000000,-9.67000000,0.06000000
269,0,0.16800000,-0.62300000,0.76600000,-0.00000000,-0.04000000,-0.15000000,0.04231825,-0.00444696,-0.06837463,-39.12000000,-9.67000000,0.06000000
270,0,0.16800000,-0.61700000,0.76800000,0.06000000,-0.19000000,-0.00000000,0.04237864,-0.00463818,-0.06837463,-39.12000000,-9.67000000,0.06000000
271,0,0.16400000,-0.62500000,0.76500000,0.07000000,0.13000000,0.27000000,0.04627880,0.00260498,-0.05333115,-39.11000000,-9.67000000,0.06000000
272,0,0.16700000,-0.61600000,0.76600000,0.04000000,-0.29000000,-0.17000000,0.04632049,0.00230273,-0.05350833,-39.11000000,-9.67000000,0.06000000
273,0,0.16700000,-0.61700000,0.76900000,-0.18000000,-0.02000000,0.09000000,0.04614224,0.00228292,-0.05341920,-39.11000000,-9.67000000,0.06000000
274,0,0.16900000,-0.62300000,0.76300000,0.13000000,0.04000000,-0.00000000,0.04627116,0.00232259,-0.05341920,-39.11000000,-9.67000000,0.07000000
275,0,0.16700000,-0.62600000,0.76700000,0.01000000,-0.15000000,-0.16000000,0.04628111,0.00217330,-0.05357845,-39.12000000,-9.67000000,0.07000000
276,0,0.17000000,-0.62600000,0.76500000,0.10000000,0.16000000,0.00000000,0.04638240,0.00233537,-0.05357845,-39.12000000,-9.67000000,0.07000000
277,0,0.16400000,-0.62300000,0.76500000,0.25000000,0.10000000,-0.09000000,0.06047791,0.00797357,-0.05865283,-39.12000000,-9.67000000,0.07000000
278,0,0.16800000,-0.61900000,0.76200000,0.26000000,-0.00000000,-0.07000000,0.06075410,0.00797357,-0.05872719,-39.12000000,-9.67000000,0.07000000
279,0,0.16800000,-0.62800000,0.76800000,0.01000000,-0.02000000,-0.03000000,0.06076413,0.00795352,-0.05875726,-39.12000000,-9.67000000,0.07000000
280,0,0.17200000,-0.62500000,0.76800000,-0.19000000,-0.23000000,0.13000000,0.06054599,0.00768946,-0.05860801,-39.12000000,-9.67000000,0.07000000
281,0,0.17200000,-0.62600000,0.76700000,-0.12000000,-0.04000000,-0.02000000,0.06042364,0.00764868,-0.05862840,-39.12000000,-9.67000000,0.07000000
282,0,0.16600000,-0.62200000,0.76700000,-0.02000000,0.09000000,-0.13000000,0.06040342,0.00773965,-0.05875980,-39.12000000,-9.67000000,0.07000000
283,0,0.17100000,-0.62300000,0.77100000,-0.10000000,0.26000000,0.25000000,0.05486769,0.02213255,-0.04492047,-39.12000000,-9.67000000,0.07000000
284,0,0.17000000,-0.61900000,0.76400000,0.16000000,0.01000000,0.06000000,0.05507569,0.02214555,-0.04484247,-39.12000000,-9.67000000,0.07000000
285,0,0.16700000,-0.62500000,0.76800000,-0.15000000,0.00000000,-0.06000000,0.05488856,0.02214555,-0.04491732,-39.12000000,-9.67000000,0.07000000
286,0,0.16500000,-0.61700000,0.76200000,0.06000000,0.01000000,-0.04000000,0.05496397,0.02215812,-0.04496759,-39.12000000,-9.67000000,0.07000000
287,0,0.17100000,-0.62300000,0.76800000,-0.08000000,0.07000000,-0.18000000,0.05486480,0.02224489,-0.04519073,-39.12000000,-9.67000000,0.07000000
288,0,0.16500000,-0.62200000,0.76700000,0.18000000,0.18000000,0.33000000,0.05508866,0.02246876,-0.04478031,-39.12000000,-9.67000000,0.07000000
289,0,0.16400000,-0.62000000,0.76500000,-0.12000000,0.26000000,0.15000000,0.04845983,0.03683122,-0.03649427,-39.12000000,-9.67000000,0.07000000
290,0,0.16500000,-0.62000000,0.76700000,0.19000000,-0.05000000,-0.06000000,0.04870601,0.03676644,-0.03657201,-39.12000000,-9.67000000,0.07000000
291,0,0.17000000,-0.62600000,0.76600000,-0.14000000,0.05000000,0.29000000,0.04852942,0.03682951,-0.03620622,-39.12000000,-9.67000000,0.07000000
292,0,0.16500000,-0.62300000,0.76800000,-0.20000000,-0.02000000,0.01000000,0.04828211,0.03680478,-0.03619386,-39.12000000,-9.67000000,0.07000000
293,0,0.17000000,-0.62000000,0.76300000,0.03000000,-0.17000000,0.11000000,0.04831940,0.03659347,-0.03605713,-39.12000000,-9.67000000,0.07000000
294,0,0.16800000,-0.61900000,0.76700000,0.09000000,-0.04000000,-0.27000000,0.04843294,0.03654301,-0.03639776,-39.12000000,-9.67000000,0.07000000
295,0,0.17100000,-0.62300000,0.76400000,0.19000000,0.11000000,0.07000000,0.05877426,0.04253008,-0.03258780,-39.12000000,-9.67000000,0.07000000
296,0,0.16500000,-0.61900000,0.76900000,0.13000000,-0.00000000,0.13000000,0.05896792,0.04253008,-0.03239413,-39.12000000,-9.67000000,0.07000000
297,0,0.16800000,-0.62300000,0.76600000,-0.09000000,0.08000000,-0.12000000,0.05883986,0.04264392,-0.03256489,-39.12000000,-9.67000000,0.07000000
298,0,0.16300000,-0.62600000,0.76300000,0.11000000,0.11000000,-0.37000000,0.05898975,0.04279382,-0.03306908,-39.12000000,-9.67000000,0.07000000
299,0,0.16800000,-0.62300000,0.76200000,-0.02000000,0.00000000,-0.17000000,0.05896184,0.04279382,-0.03330628,-39.12000000,-9.67000000,0.07000000
300,0,0.16800000,-0.62000000,0.76500000,-0.01000000,-0.03000000,-0.17000000,0.05894715,0.04274973,-0.03355609,-39.12000000,-9.67000000,0.07000000
301,0,0.16500000,-0.62000000,0.76500000,-0.03000000,-0.06000000,0.00000000,0.05734621,0.03954785,-0.03355609,-39.12000000,-9.67000000,0.07000000
302,0,0.16400000,-0.62300000,0.76300000,0.07000000,0.17000000,0.15000000,0.05744113,0.03977837,-0.03335269,-39.12000000,-9.67000000,0.07000000
303,0,0.17100000,-0.62300000,0.76300000,-0.21000000,-0.31000000,-0.22000000,0.05717565,0.03938647,-0.03363082,-39.12000000,-9.67000000,0.07000000
304,0,0.17000000,-0.62200000,0.76200000,-0.05000000,-0.18000000,0.08000000,0.05711345,0.03916256,-0.03353130,-39.12000000,-9.67000000,0.07000000
305,0,0.17100000,-0.62300000,0.76900000,-0.01000000,0.02000000,-0.16000000,0.05710106,0.03918733,-0.03372946,-39.12000000,-9.67000000,0.07000000
306,0,0.16300000,-0.62400000,0.76300000,-0.08000000,0.07000000,-0.14000000,0.05700180,0.03927419,-0.03390317,-39.12000000,-9.67000000,0.07000000
307,0,0.16500000,-0.62400000,0.76400000,-0.31000000,-0.02000000,0.00000000,0.03992336,0.03817236,-0.03390317,-39.12000000,-9.67000000,0.07000000
308,0,0.16500000,-0.62400000,0.76600000,-0.21000000,0.15000000,0.02000000,0.03964992,0.03836767,-0.03387713,-39.12000000,-9.67000000,0.07000000
309,0,0.16600000,-0.62200000,0.76400000,-0.22000000,0.07000000,0.15000000,0.03937206,0.03845608,-0.03368768,-39.12000000,-9.67000000,0.07000000
310,0,0.17100000,-0.61900000,0.76300000,-0.17000000,0.36000000,0.07000000,0.03916007,0.03890501,-0.03360039,-39.12000000,-9.66000000,0.07000000
311,0,0.16900000,-0.61800000,0.76200000,0.27000000,0.28000000,-0.03000000,0.03949586,0.03925325,-0.03363770,-39.12000000,-9.66000000,0.07000000
312,0,0.16400000,-0.62600000,0.76100000,0.08000000,0.13000000,0.32000000,0.03960152,0.03942494,-0.03321507,-39.12000000,-9.66000000,0.07000000
313,0,0.16300000,-0.62100000,0.77000000,-0.17000000,0.05000000,-0.17000000,0.03038674,0.04213517,-0.04242985,-39.12000000,-9.66000000,0.06000000
314,0,0.16800000,-0.62500000,0.77100000,0.13000000,-0.18000000,0.20000000,0.03057591,0.04187324,-0.04213881,-39.12000000,-9.66000000,0.06000000
315,0,0.16500000,-0.62600000,0.76400000,0.01000000,-0.17000000,-0.15000000,0.03059009,0.04163234,-0.04235137,-39.12000000,-9.66000000,0.06000000
316,0,0.16500000,-0.61800000,0.76600000,0.08000000,-0.21000000,-0.12000000,0.03070087,0.04134153,-0.04251755,-39.12000000,-9.66000000,0.06000000
317,0,0.16800000,-0.62300000,0.76500000,-0.15000000,0.06000000,0.12000000,0.03049454,0.04142406,-0.04235248,-39.12000000,-9.66000000,0.06000000
318,0,0.16900000,-0.62200000,0.76300000,0.05000000,-0.12000000,0.11000000,0.03057229,0.04123745,-0.04218143,-39.12000000,-9.66000000,0.07000000
319,0,0.17000000,-0.61800000,0.76100000,-0.06000000,0.19000000,0.01000000,0.02736591,0.05139100,-0.04164703,-39.12000000,-9.66000000,0.06000000
320,0,0.16800000,-0.61800000,0.76300000,-0.09000000,-0.18000000,-0.07000000,0.02723683,0.05113284,-0.04174742,-39.12000000,-9.66000000,0.07000000
321,0,0.17000000,-0.61900000,0.76600000,-0.11000000,-0.01000000,0.10000000,0.02708248,0.05111881,-0.04160710,-39.12000000,-9.66000000,0.07000000
322,0,0.16200000,-0.62000000,0.76500000,-0.15000000,-0.15000000,-0.18000000,0.02687351,0.05090983,-0.04185788,-39.12000000,-9.66000000,0.07000000
323,0,0.17000000,-0.62000000,0.76400000,0.06000000,0.16000000,-0.18000000,0.02695672,0.05113175,-0.04210753,-39.12000000,-9.66000000,0.07000000
324,0,0.16900000,-0.62100000,0.76600000,-0.08000000,-0.09000000,0.04000000,0.02683899,0.05099931,-0.04204867,-39.11000000,-9.66000000,0.07000000
325,0,0.16700000,-0.62200000,0.76700000,0.05000000,-0.10000000,0.04000000,0.02955769,0.04556192,-0.03987371,-39.11000000,-9.66000000,0.07000000
326,0,0.16500000,-0.62300000,0.76500000,-0.02000000,-0.14000000,-0.15000000,0.02952775,0.04535239,-0.04009821,-39.12000000,-9.66000000,0.07000000
327,0,0.17000000,-0.61800000,0.76400000,0.13000000,0.03000000,-0.08000000,0.02974665,0.04540290,-0.04023292,-39.12000000,-9.66000000,0.07000000
328,0,0.16800000,-0.62500000,0.76500000,0.06000000,-0.11000000,0.23000000,0.02985562,0.04520313,-0.03981521,-39.11000000,-9.66000000,0.07000000
329,0,0.17000000,-0.62200000,0.76500000,0.07000000,0.02000000,0.09000000,0.02997168,0.04523629,-0.03966598,-39.11000000,-9.66000000,0.07000000
330,0,0.16500000,-0.62100000,0.76200000,-0.00000000,-0.29000000,0.11000000,0.02997168,0.04477073,-0.03948939,-39.11000000,-9.66000000,0.07000000
331,0,0.16400000,-0.62100000,0.76500000,-0.30000000,0.20000000,0.14000000,0.01426392,0.05524257,-0.03215910,-39.11000000,-9.66000000,0.07000000
332,0,0.16900000,-0.62400000,0.76200000,-0.01000000,0.15000000,-0.31000000,0.01424950,0.05545892,-0.03260621,-39.12000000,-9.66000000,0.07000000
333,0,0.16400000,-0.62300000,0.76300000,-0.17000000,0.14000000,-0.06000000,0.01402664,0.05564245,-0.03268487,-39.12000000,-9.66000000,0.07000000
334,0,0.16700000,-0.61700000,0.76400000,0.18000000,0.16000000,0.15000000,0.01426239,0.05585201,-0.03248841,-39.12000000,-9.66000000,0.07000000
335,0,0.17100000,-0.61600000,0.76300000,0.05000000,-0.06000000,-0.01000000,0.01432970,0.05577123,-0.03250187,-39.12000000,-9.66000000,0.07000000
336,0,0.16500000,-0.62300000,0.76300000,0.08000000,-0.03000000,0.10000000,0.01444308,0.05572871,-0.03236014,-39.11000000,-9.66000000,0.07000000
337,0,0.16700000,-0.62400000,0.76400000,0.05000000,0.14000000,0.19000000,0.01727780,0.06366593,-0.02158821,-39.11000000,-9.66000000,0.07000000
338,0,0.16400000,-0.62300000,0.76200000,-0.21000000,-0.06000000,-0.05000000,0.01696130,0.06357550,-0.02166357,-39.11000000,-9.66000000,0.07000000
339,0,0.16400000,-0.62500000,0.76300000,-0.30000000,0.05000000,0.05000000,0.01655872,0.06364259,-0.02159647,-39.12000000,-9.66000000,0.07000000
340,0,0.16900000,-0.62000000,0.76400000,0.13000000,-0.01000000,-0.27000000,0.01672738,0.06362962,-0.02194676,-39.12000000,-9.66000000,0.07000000
341,0,0.16900000,-0.61500000,0.76200000,0.07000000,0.10000000,0.05000000,0.01681631,0.06375666,-0.02188324,-39.11000000,-9.66000000,0.07000000
342,0,0.16300000,-0.62100000,0.76600000,0.12000000,0.05000000,0.16000000,0.01697596,0.06382318,-0.02167036,-39.11000000,-9.66000000,0.07000000
343,0,0.16700000,-0.62000000,0.76600000,-0.16000000,0.15000000,0.11000000,0.01677140,0.06401496,-0.02152972,-39.11000000,-9.66000000,0.07000000
344,0,0.16600000,-0.62700000,0.76700000,-0.16000000,0.12000000,-0.01000000,0.00814018,0.07048838,-0.02206917,-39.11000000,-9.66000000,0.07000000
345,0,0.16800000,-0.62100000,0.76500000,-0.20000000,0.10000000,0.06000000,0.00786445,0.07062624,-0.02198646,-39.12000000,-9.66000000,0.07000000
346,0,0.17100000,-0.61900000,0.76300000,-0.00000000,0.25000000,0.16000000,0.00786445,0.07094521,-0.02178232,-39.12000000,-9.66000000,0.07000000
347,0,0.16700000,-0.62100000,0.76400000,-0.04000000,0.11000000,0.23000000,0.00781305,0.07108656,-0.02148678,-39.12000000,-9.66000000,0.07000000
348,0,0.16500000,-0.62100000,0.76700000,0.22000000,-0.08000000,-0.06000000,0.00809731,0.07098319,-0.02156431,-39.12000000,-9.66000000,0.07000000
349,0,0.17000000,-0.62200000,0.76500000,-0.02000000,0.05000000,-0.09000000,0.00807225,0.07104584,-0.02167707,-39.11000000,-9.66000000,0.07000000
350,0,0.16400000,-0.62100000,0.76800000,-0.30000000,-0.23000000,-0.04000000,-0.00836464,0.05844422,-0.02386866,-39.11000000,-9.66000000,0.07000000
351,0,0.16600000,-0.62400000,0.76700000,0.01000000,0.04000000,0.01000000,-0.00835164,0.05849624,-0.02385566,-39.11000000,-9.66000000,0.07000000
352,0,0.16700000,-0.62200000,0.76200000,0.03000000,-0.02000000,0.16000000,-0.00831225,0.05846998,-0.02364556,-39.11000000,-9.66000000,0.07000000
353,0,0.16800000,-0.62000000,0.76800000,0.28000000,0.08000000,0.03000000,-0.00796274,0.05856983,-0.02360812,-39.11000000,-9.66000000,0.07000000
354,0,0.16800000,-0.62100000,0.76500000,-0.05000000,0.02000000,0.18000000,-0.00802648,0.05859533,-0.02337867,-39.11000000,-9.66000000,0.08000000
355,0,0.16600000,-0.61800000,0.76300000,-0.19000000,-0.07000000,-0.10000000,-0.00829431,0.05849665,-0.02351964,-39.11000000,-9.66000000,0.08000000
356,0,0.17000000,-0.62300000,0.76500000,0.06000000,0.15000000,-0.10000000,-0.00503013,0.06665709,-0.02895993,-39.11000000,-9.66000000,0.07000000
357,0,0.16900000,-0.62500000,0.76500000,-0.10000000,-0.18000000,-0.00000000,-0.00517596,0.06639461,-0.02895993,-39.11000000,-9.66000000,0.07000000
358,0,0.16500000,-0.62100000,0.76600000,0.00000000,-0.24000000,0.07000000,-0.00517596,0.06605818,-0.02886181,-39.11000000,-9.66000000,0.07000000
359,0,0.16900000,-0.62000000,0.76100000,0.05000000,-0.29000000,-0.29000000,-0.00510676,0.06565686,-0.02926313,-39.11000000,-9.66000000,0.07000000
360,0,0.16400000,-0.61700000,0.76600000,0.07000000,0.02000000,-0.03000000,-0.00501033,0.06568441,-0.02930446,-39.11000000,-9.66000000,0.07000000
361,0,0.16700000,-0.62700000,0.76200000,-0.04000000,0.16000000,-0.17000000,-0.00506909,0.06591945,-0.02955419,-39.11000000,-9.66000000,0.07000000
362,0,0.17000000,-0.62000000,0.76400000,-0.13000000,0.03000000,-0.21000000,-0.01207619,0.06753647,-0.04087337,-39.11000000,-9.66000000,0.07000000
363,0,0.17000000,-0.61800000,0.76200000,-0.26000000,-0.06000000,-0.01000000,-0.01234860,0.06747361,-0.04088384,-39.11000000,-9.66000000,0.07000000
364,0,0.16700000,-0.62400000,0.76500000,0.07000000,0.10000000,-0.14000000,-0.01227351,0.06758089,-0.04103403,-39.11000000,-9.66000000,0.07000000
365,0,0.16700000,-0.62600000,0.76500000,0.10000000,-0.04000000,0.00000000,-0.01215557,0.06753371,-0.04103403,-39.11000000,-9.66000000,0.07000000
366,0,0.16900000,-0.62400000,0.76700000,-0.20000000,-0.01000000,0.15000000,-0.01236125,0.06752343,-0.04087977,-39.11000000,-9.66000000,0.07000000
367,0,0.17200000,-0.62000000,0.76600000,-0.13000000,0.08000000,0.04000000,-0.01254767,0.06763814,-0.04082241,-39.11000000,-9.66000000,0.07000000
368,0,0.17000000,-0.62100000,0.76600000,-0.06000000,0.13000000,0.04000000,-0.01583334,0.07475711,-0.03863196,-39.11000000,-9.67000000,0.07000000
369,0,0.17300000,-0.61900000,0.76100000,-0.05000000,-0.07000000,0.09000000,-0.01588542,0.07468420,-0.03853822,-39.11000000,-9.67000000,0.07000000
370,0,0.17700000,-0.62300000,0.76500000,-0.41000000,-0.20000000,0.31000000,-0.01629475,0.07448453,-0.03822873,-39.11000000,-9.67000000,0.07000000
371,0,0.16300000,-0.62200000,0.76400000,0.10000000,0.02000000,-0.15000000,-0.01618538,0.07450641,-0.03839279,-39.11000000,-9.67000000,0.07000000
372,0,0.16500000,-0.61800000,0.76200000,-0.06000000,-0.17000000,0.00000000,-0.01624744,0.07433056,-0.03839279,-39.11000000,-9.66000000,0.07000000
373,0,0.16800000,-0.62200000,0.76300000,-0.00000000,0.20000000,0.10000000,-0.01624744,0.07453381,-0.03829116,-39.11000000,-9.66000000,0.07000000
374,0,0.17000000,-0.62100000,0.76500000,0.13000000,-0.04000000,0.14000000,-0.00904358,0.07231724,-0.03053316,-39.11000000,-9.66000000,0.07000000
375,0,0.16800000,-0.62400000,0.76800000,0.11000000,-0.01000000,-0.24000000,-0.00892652,0.07230660,-0.03078856,-39.11000000,-9.66000000,0.07000000
376,0,0.16500000,-0.62800000,0.76900000,-0.08000000,-0.03000000,-0.19000000,-0.00900753,0.07227622,-0.03098097,-39.11000000,-9.66000000,0.07000000
377,0,0.16600000,-0.62400000,0.76500000,0.05000000,0.16000000,-0.02000000,-0.00895727,0.07243706,-0.03100107,-39.11000000,-9.66000000,0.07000000
378,0,0.17200000,-0.62000000,0.76900000,-0.03000000,0.12000000,-0.08000000,-0.00898773,0.07255890,-0.03108230,-39.11000000,-9.66000000,0.07000000
379,0,0.16900000,-0.62400000,0.77200000,0.19000000,-0.14000000,-0.06000000,-0.00878409,0.07240885,-0.03114660,-39.11000000,-9.66000000,0.07000000
380,0,0.16800000,-0.61900000,0.76800000,0.05000000,-0.01000000,-0.12000000,-0.00596752,0.07184553,-0.03790636,-39.11000000,-9.66000000,0.07000000
381,0,0.16800000,-0.61700000,0.76400000,0.05000000,0.10000000,-0.18000000,-0.00591446,0.07195167,-0.03809739,-39.11000000,-9.66000000,0.07000000
382,0,0.16600000,-0.62200000,0.76300000,-0.01000000,-0.31000000,-0.11000000,-0.00592457,0.07163811,-0.03820865,-39.11000000,-9.66000000,0.07000000
383,0,0.16700000,-0.61600000,0.76700000,0.08000000,-0.17000000,-0.24000000,-0.00584249,0.07146368,-0.03845490,-39.11000000,-9.66000000,0.07000000
384,0,0.16600000,-0.62200000,0.76200000,0.02000000,0.28000000,0.06000000,-0.00582224,0.07174716,-0.03839415,-39.11000000,-9.66000000,0.07000000
385,0,0.16600000,-0.62300000,0.76600000,-0.15000000,0.04000000,-0.16000000,-0.00597354,0.07178751,-0.03855553,-39.11000000,-9.66000000,0.07000000
386,0,0.16700000,-0.62200000,0.76400000,-0.14000000,0.15000000,0.01000000,-0.01373711,0.08010563,-0.03800099,-39.11000000,-9.66000000,0.07000000
387,0,0.16200000,-0.62400000,0.76800000,0.20000000,0.00000000,-0.12000000,-0.01352504,0.08010563,-0.03812823,-39.11000000,-9.66000000,0.06000000
388,0,0.16600000,-0.62500000,0.76400000,0.11000000,-0.05000000,0.02000000,-0.01341357,0.08005496,-0.03810796,-39.11000000,-9.66000000,0.06000000
389,0,0.16500000,-0.62300000,0.76500000,0.19000000,0.11000000,0.08000000,-0.01319992,0.08017865,-0.03801800,-39.11000000,-9.66000000,0.07000000
390,0,0.16800000,-0.62500000,0.76300000,0.01000000,-0.06000000,0.08000000,-0.01318978,0.08011783,-0.03793691,-39.11000000,-9.66000000,0.07000000
391,0,0.17100000,-0.62200000,0.76700000,-0.24000000,-0.21000000,-0.03000000,-0.01343259,0.07990537,-0.03796727,-39.11000000,-9.66000000,0.07000000
392,0,0.17000000,-0.62300000,0.76500000,0.17000000,0.05000000,-0.10000000,-0.00399960,0.08267979,-0.04351609,-39.11000000,-9.66000000,0.07000000
393,0,0.16800000,-0.62100000,0.76000000,-0.02000000,0.25000000,-0.12000000,-0.00402083,0.08294517,-0.04364347,-39.11000000,-9.66000000,0.07000000
394,0,0.16500000,-0.62200000,0.76200000,0.08000000,0.06000000,-0.17000000,-0.00393938,0.08300626,-0.04381656,-39.11000000,-9.66000000,0.07000000
395,0,0.16900000,-0.62100000,0.76400000,-0.14000000,0.09000000,-0.05000000,-0.00408188,0.08309787,-0.04386745,-39.11000000,-9.66000000,0.06000000
396,0,0.17100000,-0.62000000,0.76400000,-0.11000000,0.00000000,-0.07000000,-0.00419236,0.08309787,-0.04393776,-39.11000000,-9.66000000,0.06000000
397,0,0.16900000,-0.62200000,0.76400000,0.21000000,0.18000000,-0.00000000,-0.00398115,0.08327891,-0.04393776,-39.11000000,-9.66000000,0.06000000
398,0,0.16600000,-0.62000000,0.76600000,0.13000000,0.05000000,0.22000000,0.00333534,0.08609294,-0.03155600,-39.11000000,-9.66000000,0.06000000
399,0,0.16600000,-0.62600000,0.76500000,0.05000000,-0.09000000,0.12000000,0.00338824,0.08599773,-0.03142904,-39.11000000,-9.66000000,0.07000000
400,0,0.16500000,-0.62700000,0.76300000,-0.11000000,0.04000000,-0.23000000,0.00327640,0.08603839,-0.03166289,-39.11000000,-9.66000000,0.06000000
401,0,0.16500000,-0.62300000,0.76400000,-0.04000000,0.10000000,-0.15000000,0.00323596,0.08613949,-0.03181454,-39.11000000,-9.66000000,0.07000000
402,0,0.16600000,-0.62100000,0.76500000,-0.01000000,-0.09000000,-0.16000000,0.00322594,0.08604934,-0.03197481,-39.11000000,-9.66000000,0.07000000
403,0,0.16300000,-0.62600000,0.76400000,0.12000000,-0.28000000,-0.17000000,0.00334621,0.08576873,-0.03214518,-39.11000000,-9.66000000,0.07000000
404,0,0.16800000,-0.61900000,0.76700000,0.07000000,0.01000000,0.06000000,0.00722996,0.08632355,-0.02881624,-39.11000000,-9.66000000,0.07000000
405,0,0.16700000,-0.62000000,0.76300000,0.08000000,0.14000000,0.05000000,0.00731483,0.08647207,-0.02876320,-39.11000000,-9.66000000,0.07000000
406,0,0.16800000,-0.62300000,0.76200000,-0.38000000,-0.01000000,-0.18000000,0.00692540,0.08646182,-0.02894767,-39.11000000,-9.66000000,0.06000000
407,0,0.16500000,-0.62300000,0.76100000,0.07000000,-0.17000000,0.00000000,0.00699593,0.08629052,-0.02894767,-39.11000000,-9.66000000,0.06000000
408,0,0.16600000,-0.61800000,0.76300000,-0.16000000,-0.34000000,0.15000000,0.00683505,0.08594865,-0.02879684,-39.11000000,-9.66000000,0.06000000
409,0,0.16500000,-0.62200000,0.76700000,-0.07000000,0.04000000,0.10000000,0.00676456,0.08598892,-0.02869615,-39.11000000,-9.66000000,0.07000000
410,0,0.16400000,-0.62500000,0.76100000,-0.05000000,-0.11000000,-0.08000000,0.00398619,0.07987651,-0.03314154,-39.11000000,-9.66000000,0.07000000
411,0,0.16400000,-0.61900000,0.76400000,0.06000000,0.07000000,-0.05000000,0.00405110,0.07995224,-0.03319563,-39.11000000,-9.65000000,0.07000000
412,0,0.17200000,-0.62100000,0.76600000,-0.24000000,-0.13000000,0.00000000,0.00380206,0.07981734,-0.03319563,-39.11000000,-9.65000000,0.07000000
413,0,0.16700000,-0.62200000,0.76200000,0.11000000,0.05000000,-0.05000000,0.00391812,0.07987009,-0.03324838,-39.11000000,-9.65000000,0.07000000
414,0,0.17200000,-0.61800000,0.76400000,-0.00000000,-0.01000000,-0.21000000,0.00391812,0.07985975,-0.03346555,-39.11000000,-9.66000000,0.07000000
415,0,0.16600000,-0.62400000,0.76200000,-0.33000000,-0.08000000,0.06000000,0.00357953,0.07977767,-0.03340399,-39.11000000,-9.66000000,0.07000000
416,0,0.16600000,-0.62300000,0.76200000,-0.10000000,0.20000000,-0.04000000,-0.00204210,0.09102094,-0.03565264,-39.11000000,-9.66000000,0.07000000
417,0,0.16600000,-0.61500000,0.76600000,-0.16000000,0.08000000,0.13000000,-0.00221382,0.09110680,-0.03551312,-39.11000000,-9.65000000,0.07000000
418,0,0.16800000,-0.61800000,0.76600000,0.10000000,0.14000000,0.11000000,-0.00211236,0.09124884,-0.03540152,-39.11000000,-9.65000000,0.07000000
419,0,0.16800000,-0.62100000,0.76200000,0.25000000,0.28000000,0.01000000,-0.00186086,0.09153052,-0.03539146,-39.11000000,-9.65000000,0.07000000
420,0,0.17000000,-0.62500000,0.76200000,-0.09000000,-0.03000000,0.13000000,-0.00195125,0.09150039,-0.03526090,-39.11000000,-9.65000000,0.07000000
421,0,0.16600000,-0.62200000,0.76500000,0.16000000,0.11000000,-0.27000000,-0.00178869,0.09161215,-0.03553522,-39.11000000,-9.65000000,0.07000000
422,0,0.16700000,-0.62300000,0.76300000,0.16000000,0.00000000,-0.01000000,0.00708187,0.09161215,-0.03608963,-39.11000000,-9.65000000,0.07000000
423,0,0.16400000,-0.62000000,0.76900000,0.17000000,0.10000000,0.02000000,0.00728981,0.09173446,-0.03606517,-39.11000000,-9.65000000,0.07000000
424,0,0.16700000,-0.61800000,0.76300000,0.01000000,0.08000000,0.08000000,0.00730164,0.09182912,-0.03597052,-39.11000000,-9.65000000,0.07000000
425,0,0.17200000,-0.62400000,0.76300000,0.38000000,0.12000000,-0.14000000,0.00776392,0.09197510,-0.03614083,-39.11000000,-9.65000000,0.07000000
426,0,0.16700000,-0.62500000,0.76400000,0.05000000,0.00000000,0.01000000,0.00782360,0.09197510,-0.03612889,-39.11000000,-9.65000000,0.07000000
427,0,0.16600000,-0.62100000,0.76400000,-0.04000000,0.08000000,0.19000000,0.00776391,0.09209447,-0.03584539,-39.11000000,-9.65000000,0.07000000
428,0,0.17100000,-0.62500000,0.76300000,0.08000000,-0.15000000,-0.18000000,0.01212885,0.08391021,-0.04566650,-39.11000000,-9.65000000,0.07000000
429,0,0.16400000,-0.61900000,0.76400000,-0.21000000,-0.17000000,-0.12000000,0.01181400,0.08365533,-0.04584641,-39.11000000,-9.65000000,0.07000000
430,0,0.16600000,-0.62400000,0.76700000,0.09000000,0.26000000,0.22000000,0.01191049,0.08393406,-0.04561056,-39.11000000,-9.65000000,0.07000000
431,0,0.17000000,-0.61900000,0.76600000,0.06000000,-0.01000000,-0.03000000,0.01197482,0.08392334,-0.04564273,-39.11000000,-9.65000000,0.07000000
432,0,0.16800000,-0.62500000,0.76500000,-0.08000000,0.20000000,-0.09000000,0.01188936,0.08413698,-0.04573887,-39.11000000,-9.65000000,0.07000000
433,0,0.16700000,-0.62300000,0.76700000,-0.07000000,0.05000000,-0.15000000,0.01181342,0.08419123,-0.04590161,-39.11000000,-9.65000000,0.07000000
434,0,0.16700000,-0.61800000,0.76500000,0.15000000,0.25000000,-0.10000000,0.02013243,0.09805625,-0.05144761,-39.11000000,-9.65000000,0.07000000
435,0,0.17000000,-0.62800000,0.76500000,-0.15000000,0.11000000,0.05000000,0.01996612,0.09817821,-0.05139218,-39.11000000,-9.65000000,0.07000000
436,0,0.16800000,-0.62000000,0.76500000,-0.04000000,-0.18000000,0.31000000,0.01992346,0.09798623,-0.05106155,-39.11000000,-9.65000000,0.07000000
437,0,0.17300000,-0.62500000,0.76900000,0.18000000,0.18000000,0.26000000,0.02011801,0.09818078,-0.05078053,-39.11000000,-9.65000000,0.07000000
438,0,0.16800000,-0.62100000,0.76400000,0.01000000,-0.08000000,0.12000000,0.02012870,0.09809525,-0.05065222,-39.11000000,-9.65000000,0.07000000
439,0,0.17300000,-0.62100000,0.76500000,0.07000000,-0.28000000,-0.00000000,0.02020418,0.09779335,-0.05065222,-39.11000000,-9.65000000,0.07000000
440,0,0.16900000,-0.62500000,0.76400000,-0.05000000,-0.15000000,-0.11000000,0.01744448,0.08951425,-0.05672357,-39.11000000,-9.65000000,0.07000000
441,0,0.16800000,-0.62300000,0.76500000,-0.09000000,0.19000000,-0.17000000,0.01734677,0.08972051,-0.05690812,-39.11000000,-9.65000000,0.07000000
442,0,0.16300000,-0.62200000,0.76900000,0.29000000,0.20000000,0.21000000,0.01765511,0.08993316,-0.05668485,-39.11000000,-9.65000000,0.07000000
443,0,0.16600000,-0.62100000,0.76800000,0.08000000,0.00000000,-0.01000000,0.01775401,0.08993316,-0.05669721,-39.10000000,-9.65000000,0.07000000
444,0,0.16500000,-0.62500000,0.76600000,0.04000000,-0.04000000,0.16000000,0.01779746,0.08988970,-0.05652340,-39.10000000,-9.65000000,0.07000000
445,0,0.17000000,-0.62100000,0.76900000,0.12000000,0.15000000,0.01000000,0.01792674,0.09005129,-0.05651262,-39.10000000,-9.65000000,0.07000000
446,0,0.16400000,-0.62600000,0.76300000,-0.11000000,0.07000000,-0.06000000,0.01185238,0.09391679,-0.05982591,-39.10000000,-9.65000000,0.07000000
447,0,0.16800000,-0.62400000,0.76500000,-0.44000000,0.22000000,0.07000000,0.01139212,0.09414692,-0.05975268,-39.10000000,-9.65000000,0.07000000
448,0,0.16900000,-0.62300000,0.76900000,0.18000000,-0.06000000,-0.12000000,0.01157225,0.09408688,-0.05987277,-39.10000000,-9.65000000,0.07000000
449,0,0.16800000,-0.62400000,0.76400000,0.00000000,-0.02000000,-0.03000000,0.01157225,0.09406272,-0.05990902,-39.10000000,-9.65000000,0.07000000
450,0,0.16800000,-0.62000000,0.76400000,0.03000000,0.01000000,0.13000000,0.01160498,0.09407362,-0.05976721,-39.10000000,-9.65000000,0.07000000
451,0,0.17000000,-0.62000000,0.76100000,0.01000000,-0.22000000,-0.02000000,0.01161504,0.09385231,-0.05978733,-39.10000000,-9.65000000,0.07000000
452,0,0.16800000,-0.62100000,0.76400000,0.09000000,0.08000000,0.11000000,0.01665151,0.09832917,-0.05363164,-39.11000000,-9.65000000,0.07000000
453,0,0.16700000,-0.62200000,0.76500000,0.08000000,0.19000000,-0.06000000,0.01673582,0.09852941,-0.05369488,-39.10000000,-9.65000000,0.07000000
454,0,0.16700000,-0.62500000,0.76900000,0.19000000,0.07000000,0.00000000,0.01692456,0.09859894,-0.05369488,-39.10000000,-9.65000000,0.07000000
455,0,0.16900000,-0.62500000,0.76600000,0.20000000,0.10000000,0.28000000,0.01712638,0.09869985,-0.05341233,-39.10000000,-9.65000000,0.07000000
456,0,0.16500000,-0.62200000,0.76800000,-0.18000000,0.22000000,0.04000000,0.01694650,0.09891970,-0.05337236,-39.10000000,-9.65000000,0.07000000
457,0,0.16500000,-0.62600000,0.76400000,-0.12000000,-0.29000000,-0.06000000,0.01682667,0.09863011,-0.05343228,-39.10000000,-9.65000000,0.07000000
458,0,0.16900000,-0.62100000,0.76300000,-0.04000000,-0.05000000,-0.23000000,0.01448535,0.09570346,-0.06689488,-39.10000000,-9.65000000,0.07000000
459,0,0.16500000,-0.62000000,0.76200000,0.03000000,-0.07000000,0.05000000,0.01451713,0.09562928,-0.06684190,-39.10000000,-9.65000000,0.07000000
460,0,0.17300000,-0.62300000,0.76400000,0.08000000,-0.22000000,-0.10000000,0.01460694,0.09538231,-0.06695415,-39.10000000,-9.65000000,0.07000000
461,0,0.16700000,-0.61600000,0.76500000,0.36000000,0.12000000,0.13000000,0.01497399,0.09550466,-0.06682161,-39.10000000,-9.65000000,0.07000000
462,0,0.16300000,-0.62200000,0.76800000,0.04000000,-0.36000000,0.01000000,0.01501741,0.09511384,-0.06681075,-39.10000000,-9.65000000,0.07000000
463,0,0.16500000,-0.62300000,0.76700000,0.04000000,0.19000000,-0.00000000,0.01505830,0.09530806,-0.06681075,-39.10000000,-9.65000000,0.07000000
464,0,0.16400000,-0.62400000,0.76600000,-0.08000000,-0.06000000,0.06000000,0.01493611,0.09521641,-0.06671911,-39.10000000,-9.65000000,0.07000000
465,0,0.16800000,-0.62300000,0.76900000,0.07000000,0.00000000,-0.11000000,0.01877417,0.09521641,-0.07275035,-39.10000000,-9.65000000,0.07000000
466,0,0.16200000,-0.62000000,0.76600000,-0.10000000,-0.15000000,-0.04000000,0.01866447,0.09505185,-0.07279423,-39.10000000,-9.65000000,0.07000000
467,0,0.17100000,-0.61900000,0.76300000,-0.01000000,0.23000000,-0.02000000,0.01865382,0.09529678,-0.07281553,-39.10000000,-9.65000000,0.07000000
468,0,0.16800000,-0.62200000,0.76500000,0.00000000,-0.23000000,0.27000000,0.01865382,0.09501396,-0.07248353,-39.10000000,-9.65000000,0.07000000
469,0,0.16500000,-0.62300000,0.76900000,0.14000000,0.05000000,0.13000000,0.01880447,0.09506777,-0.07234364,-39.10000000,-9.65000000,0.07000000
470,0,0.17100000,-0.61600000,0.77000000,0.21000000,0.03000000,0.04000000,0.01908267,0.09510751,-0.07229065,-39.10000000,-9.65000000,0.07000000
471,0,0.16800000,-0.61900000,0.76600000,0.20000000,-0.09000000,-0.06000000,0.03022427,0.09009379,-0.07563313,-39.10000000,-9.65000000,0.07000000
472,0,0.16600000,-0.62000000,0.76800000,0.11000000,0.14000000,-0.16000000,0.03035266,0.09025719,-0.07581988,-39.10000000,-9.65000000,0.07000000
473,0,0.16300000,-0.62000000,0.76700000,-0.00000000,0.02000000,0.14000000,0.03035266,0.09028008,-0.07565961,-39.10000000,-9.65000000,0.07000000
474,0,0.16400000,-0.62200000,0.76400000,-0.00000000,0.08000000,-0.03000000,0.03035266,0.09037454,-0.07569503,-39.09000000,-9.65000000,0.07000000
475,0,0.16600000,-0.62200000,0.76500000,0.07000000,0.09000000,-0.12000000,0.03042957,0.09047343,-0.07582688,-39.09000000,-9.65000000,0.07000000
476,0,0.16600000,-0.62200000,0.76500000,-0.06000000,-0.00000000,-0.09000000,0.03036422,0.09047343,-0.07592491,-39.10000000,-9.65000000,0.07000000
477,0,0.17200000,-0.62200000,0.76500000,-0.00000000,0.16000000,0.11000000,0.03036422,0.09923783,-0.06989939,-39.10000000,-9.65000000,0.07000000
478,0,0.16700000,-0.62300000,0.76300000,-0.06000000,-0.08000000,-0.05000000,0.03030146,0.09915414,-0.06995169,-39.10000000,-9.65000000,0.07000000
479,0,0.16800000,-0.61800000,0.76500000,0.04000000,-0.03000000,0.00000000,0.03034208,0.09912368,-0.06995169,-39.10000000,-9.65000000,0.07000000
480,0,0.16800000,-0.62200000,0.76400000,-0.23000000,0.03000000,0.34000000,0.03008992,0.09915657,-0.06957893,-39.10000000,-9.64000000,0.07000000
481,0,0.16800000,-0.61900000,0.76700000,0.07000000,0.15000000,-0.00000000,0.03016484,0.09931712,-0.06957893,-39.10000000,-9.65000000,0.07000000
482,0,0.16600000,-0.62500000,0.76300000,-0.06000000,-0.18000000,-0.10000000,0.03010094,0.09912540,-0.06968544,-39.10000000,-9.64000000,0.07000000
483,0,0.16500000,-0.61900000,0.76600000,-0.12000000,-0.17000000,-0.03000000,0.02345291,0.08970736,-0.07134745,-39.10000000,-9.65000000,0.07000000
484,0,0.16500000,-0.62000000,0.76300000,0.15000000,-0.16000000,0.06000000,0.02360971,0.08954011,-0.07128473,-39.10000000,-9.65000000,0.07000000
485,0,0.16400000,-0.61700000,0.76600000,-0.09000000,0.11000000,0.18000000,0.02351827,0.08965187,-0.07110185,-39.10000000,-9.64000000,0.07000000
486,0,0.16800000,-0.62200000,0.76300000,-0.11000000,-0.11000000,0.11000000,0.02340829,0.08954189,-0.07099187,-39.10000000,-9.64000000,0.07000000
487,0,0.16600000,-0.61900000,0.76200000,0.11000000,-0.03000000,0.17000000,0.02351801,0.08951197,-0.07082231,-39.10000000,-9.64000000,0.07000000
488,0,0.17200000,-0.61800000,0.76800000,-0.10000000,-0.01000000,0.05000000,0.02341834,0.08950200,-0.07077248,-39.10000000,-9.64000000,0.07000000
489,0,0.16400000,-0.61900000,0.77100000,0.06000000,-0.21000000,-0.27000000,0.02680748,0.07764000,-0.08602363,-39.10000000,-9.64000000,0.07000000
490,0,0.16600000,-0.62100000,0.76600000,-0.25000000,0.14000000,-0.10000000,0.02648953,0.07781805,-0.08615081,-39.10000000,-9.64000000,0.07000000
491,0,0.16900000,-0.61800000,0.76700000,-0.08000000,-0.07000000,0.09000000,0.02640676,0.07774563,-0.08605770,-39.10000000,-9.64000000,0.07000000
492,0,0.16900000,-0.62000000,0.76400000,-0.01000000,0.00000000,-0.30000000,0.02639670,0.07774563,-0.08635950,-39.10000000,-9.64000000,0.07000000
493,0,0.16400000,-0.62100000,0.76300000,-0.05000000,0.20000000,-0.17000000,0.02634610,0.07794802,-0.08653153,-39.10000000,-9.64000000,0.07000000
494,0,0.16600000,-0.62000000,0.76400000,-0.06000000,0.26000000,-0.07000000,0.02628535,0.07821125,-0.08660240,-39.10000000,-9.64000000,0.07000000
495,0,0.16500000,-0.61900000,0.76400000,-0.10000000,-0.10000000,-0.10000000,0.02077416,0.07270005,-0.09211360,-39.10000000,-9.64000000,0.06000000
496,0,0.16600000,-0.62000000,0.76700000,0.03000000,0.11000000,-0.06000000,0.02080574,0.07281585,-0.09217676,-39.10000000,-9.64000000,0.07000000
497,0,0.17100000,-0.61700000,0.76300000,-0.12000000,-0.03000000,0.08000000,0.02068485,0.07278563,-0.09209617,-39.10000000,-9.64000000,0.07000000
498,0,0.16600000,-0.62400000,0.76800000,-0.21000000,0.17000000,0.21000000,0.02047429,0.07295608,-0.09188561,-39.10000000,-9.64000000,0.07000000
499,0,0.16600000,-0.62300000,0.76800000,-0.03000000,0.04000000,-0.09000000,0.02044437,0.07299598,-0.09197538,-39.10000000,-9.64000000,0.07000000
500,0,0.16500000,-0.61900000,0.76500000,0.06000000,0.29000000,0.14000000,0.02050403,0.07328432,-0.09183617,-39.10000000,-9.64000000,0.07000000
501,0,0.17100000,-0.62100000,0.76500000,-0.06000000,-0.08000000,0.05000000,0.01715868,0.06882387,-0.08904839,-39.10000000,-9.64000000,0.07000000
502,0,0.17200000,-0.62400000,0.76500000,0.05000000,-0.08000000,0.32000000,0.01721255,0.06873769,-0.08870366,-39.10000000,-9.64000000,0.07000000
503,0,0.16500000,-0.62600000,0.76800000,0.12000000,-0.17000000,0.12000000,0.01733369,0.06856606,-0.08858251,-39.10000000,-9.64000000,0.07000000
504,0,0.17100000,-0.62400000,0.76300000,0.18000000,-0.21000000,0.15000000,0.01751456,0.06835505,-0.08843179,-39.10000000,-9.64000000,0.07000000
505,0,0.16200000,-0.62500000,0.76100000,0.05000000,-0.32000000,-0.41000000,0.01756470,0.06803413,-0.08884298,-39.10000000,-9.64000000,0.07000000
506,0,0.16800000,-0.62200000,0.76800000,-0.22000000,0.19000000,-0.01000000,0.01734297,0.06822563,-0.08885306,-39.10000000,-9.64000000,0.07000000
507,0,0.16700000,-0.62400000,0.76600000,-0.15000000,-0.05000000,0.06000000,0.00891034,0.06541475,-0.08548000,-39.09000000,-9.64000000,0.07000000
508,0,0.16900000,-0.62400000,0.76400000,-0.17000000,0.00000000,0.03000000,0.00873182,0.06541475,-0.08544850,-39.09000000,-9.64000000,0.07000000
509,0,0.16500000,-0.62300000,0.76600000,-0.17000000,-0.09000000,0.10000000,0.00856137,0.06532451,-0.08534823,-39.10000000,-9.64000000,0.07000000
510,0,0.16600000,-0.62300000,0.76500000,-0.15000000,-0.14000000,0.03000000,0.00841208,0.06518517,-0.08531838,-39.10000000,-9.64000000,0.07000000
511,0,0.16400000,-0.62500000,0.76600000,-0.13000000,-0.06000000,-0.09000000,0.00828285,0.06512553,-0.08540784,-39.10000000,-9.64000000,0.07000000
512,0,0.16600000,-0.62400000,0.76500000,-0.21000000,0.06000000,-0.04000000,0.00807044,0.06518622,-0.08544830,-39.10000000,-9.64000000,0.07000000
513,0,0.16300000,-0.61800000,0.76800000,0.12000000,-0.08000000,-0.11000000,0.01473031,0.06074630,-0.09155319,-39.10000000,-9.64000000,0.07000000
514,0,0.16600000,-0.62200000,0.76700000,0.02000000,-0.01000000,-0.15000000,0.01475144,0.06073574,-0.09171163,-39.10000000,-9.64000000,0.07000000
515,0,0.16000000,-0.61900000,0.76600000,-0.10000000,-0.29000000,-0.04000000,0.01465160,0.06044622,-0.09175156,-39.10000000,-9.64000000,0.07000000
516,0,0.16600000,-0.62500000,0.76600000,0.13000000,0.17000000,0.09000000,0.01478368,0.06061894,-0.09166012,-39.10000000,-9.64000000,0.07000000
517,0,0.15800000,-0.62200000,0.76600000,-0.03000000,-0.14000000,0.09000000,0.01475383,0.06047963,-0.09157057,-39.10000000,-9.64000000,0.07000000
518,0,0.16800000,-0.61800000,0.76600000,-0.11000000,-0.38000000,-0.16000000,0.01464370,0.06009917,-0.09173077,-39.10000000,-9.64000000,0.07000000
519,0,0.16500000,-0.62600000,0.76700000,0.19000000,0.03000000,-0.02000000,0.02523013,0.06177071,-0.09284513,-39.10000000,-9.64000000,0.07000000
520,0,0.17200000,-0.62100000,0.76500000,0.05000000,0.09000000,0.17000000,0.02528207,0.06186421,-0.09266852,-39.10000000,-9.64000000,0.07000000
521,0,0.16200000,-0.62100000,0.76500000,-0.12000000,0.08000000,-0.24000000,0.02516318,0.06194347,-0.09290629,-39.10000000,-9.64000000,0.07000000
522,0,0.16400000,-0.62200000,0.76700000,0.16000000,-0.06000000,0.04000000,0.02532189,0.06188395,-0.09286662,-39.10000000,-9.64000000,0.07000000
523,0,0.16600000,-0.62000000,0.76400000,0.10000000,0.36000000,0.00000000,0.02542077,0.06223993,-0.09286662,-39.10000000,-9.64000000,0.07000000
524,0,0.16900000,-0.62100000,0.76500000,0.06000000,0.05000000,0.15000000,0.02548189,0.06229086,-0.09271382,-39.10000000,-9.63000000,0.07000000
525,0,0.17000000,-0.62200000,0.76500000,0.03000000,-0.14000000,-0.22000000,0.02717252,0.05440128,-0.10511173,-39.10000000,-9.64000000,0.07000000
526,0,0.16800000,-0.61800000,0.76700000,0.03000000,-0.08000000,0.02000000,0.02720577,0.05431260,-0.10508956,-39.10000000,-9.64000000,0.07000000
527,0,0.16800000,-0.62200000,0.76600000,-0.06000000,0.25000000,0.10000000,0.02714453,0.05456779,-0.10498749,-39.10000000,-9.63000000,0.07000000
528,0,0.16800000,-0.62300000,0.76000000,-0.19000000,-0.00000000,0.34000000,0.02695461,0.05456779,-0.10464764,-39.10000000,-9.63000000,0.07000000
529,0,0.16700000,-0.62500000,0.76300000,0.14000000,-0.21000000,0.06000000,0.02709755,0.05435338,-0.10458638,-39.10000000,-9.63000000,0.07000000
530,0,0.16700000,-0.62300000,0.76300000,-0.22000000,0.04000000,-0.15000000,0.02684550,0.05439921,-0.10475823,-39.10000000,-9.63000000,0.07000000
531,0,0.16400000,-0.61800000,0.76400000,0.00000000,0.32000000,0.12000000,0.02684550,0.07206549,-0.09813338,-39.10000000,-9.63000000,0.07000000
532,0,0.16500000,-0.62300000,0.76800000,0.21000000,-0.10000000,-0.08000000,0.02706792,0.07195957,-0.09821811,-39.10000000,-9.63000000,0.07000000
533,0,0.16900000,-0.62200000,0.76800000,-0.11000000,-0.15000000,0.20000000,0.02695566,0.07180649,-0.09801401,-39.10000000,-9.63000000,0.07000000
534,0,0.17000000,-0.62600000,0.77100000,0.01000000,-0.01000000,0.17000000,0.02696574,0.07179641,-0.09784270,-39.10000000,-9.64000000,0.07000000
535,0,0.17000000,-0.62500000,0.76400000,0.02000000,-0.10000000,0.07000000,0.02698606,0.07169479,-0.09777157,-39.10000000,-9.64000000,0.07000000
536,0,0.16900000,-0.62200000,0.76200000,-0.16000000,0.10000000,-0.02000000,0.02682449,0.07179577,-0.09779176,-39.11000000,-9.64000000,0.07000000
537,0,0.17100000,-0.62700000,0.76500000,-0.16000000,-0.21000000,0.05000000,0.01788737,0.06006579,-0.09499891,-39.11000000,-9.64000000,0.07000000
538,0,0.17000000,-0.61900000,0.76700000,-0.06000000,0.14000000,0.06000000,0.01781840,0.06022672,-0.09492994,-39.11000000,-9.64000000,0.07000000
539,0,0.16700000,-0.61800000,0.76400000,-0.04000000,-0.01000000,0.17000000,0.01777596,0.06021611,-0.09474960,-39.11000000,-9.64000000,0.07000000
540,0,0.16400000,-0.62300000,0.76600000,-0.12000000,-0.05000000,-0.11000000,0.01765207,0.06016449,-0.09486317,-39.11000000,-9.64000000,0.07000000
541,0,0.17000000,-0.62200000,0.76500000,-0.24000000,0.02000000,0.06000000,0.01741132,0.06018455,-0.09480298,-39.11000000,-9.64000000,0.07000000
542,0,0.16900000,-0.62000000,0.76400000,0.14000000,-0.02000000,-0.13000000,0.01756424,0.06016271,-0.09494498,-39.11000000,-9.64000000,0.07000000
543,0,0.16900000,-0.62300000,0.76500000,0.21000000,-0.16000000,0.29000000,0.02928581,0.05123199,-0.07875805,-39.11000000,-9.64000000,0.07000000
544,0,0.17100000,-0.61900000,0.76900000,0.15000000,-0.02000000,-0.21000000,0.02944475,0.05121080,-0.07898058,-39.11000000,-9.64000000,0.07000000
545,0,0.16400000,-0.61800000,0.76700000,0.01000000,0.37000000,0.12000000,0.02945484,0.05158425,-0.07885946,-39.11000000,-9.64000000,0.07000000
546,0,0.15900000,-0.62100000,0.76400000,-0.01000000,-0.10000000,0.10000000,0.02944463,0.05148208,-0.07875728,-39.11000000,-9.64000000,0.07000000
547,0,0.16300000,-0.62800000,0.76600000,0.16000000,-0.25000000,0.01000000,0.02960921,0.05122492,-0.07874700,-39.11000000,-9.64000000,0.07000000
548,0,0.16600000,-0.62100000,0.76500000,0.03000000,-0.24000000,0.17000000,0.02963950,0.05098262,-0.07857537,-39.11000000,-9.64000000,0.07000000
549,0,0.16400000,-0.62100000,0.76900000,0.07000000,0.25000000,-0.02000000,0.03351972,0.06484055,-0.07968400,-39.11000000,-9.64000000,0.07000000
550,0,0.16700000,-0.62000000,0.76500000,-0.24000000,0.09000000,0.04000000,0.03327038,0.06493405,-0.07964245,-39.11000000,-9.64000000,0.07000000
551,0,0.17600000,-0.62000000,0.76900000,-0.12000000,-0.11000000,-0.03000000,0.03315115,0.06482475,-0.07967226,-39.11000000,-9.64000000,0.07000000
552,0,0.16800000,-0.62200000,0.76300000,0.18000000,0.15000000,-0.13000000,0.03333377,0.06497694,-0.07980415,-39.11000000,-9.64000000,0.07000000
553,0,0.16600000,-0.62500000,0.76400000,0.04000000,0.04000000,-0.09000000,0.03337426,0.06501743,-0.07989525,-39.11000000,-9.64000000,0.07000000
554,0,0.16500000,-0.61900000,0.76300000,0.08000000,-0.02000000,0.22000000,0.03345453,0.06499736,-0.07967451,-39.11000000,-9.64000000,0.07000000
555,0,0.16600000,-0.62400000,0.76300000,-0.04000000,0.11000000,0.06000000,0.03119456,0.07121229,-0.07628455,-39.11000000,-9.64000000,0.07000000
556,0,0.16200000,-0.62300000,0.76300000,-0.05000000,-0.09000000,-0.13000000,0.03114135,0.07111651,-0.07642289,-39.11000000,-9.64000000,0.07000000
557,0,0.16600000,-0.62500000,0.76300000,-0.05000000,-0.25000000,0.07000000,0.03109037,0.07086162,-0.07635152,-39.11000000,-9.64000000,0.07000000
558,0,0.16200000,-0.62500000,0.76800000,0.14000000,0.04000000,0.08000000,0.03124883,0.07090689,-0.07626097,-39.11000000,-9.64000000,0.07000000
559,0,0.17000000,-0.62100000,0.76900000,0.07000000,-0.15000000,-0.18000000,0.03131997,0.07075446,-0.07644389,-39.11000000,-9.64000000,0.07000000
560,0,0.16900000,-0.62200000,0.76400000,0.04000000,-0.17000000,0.25000000,0.03136010,0.07058388,-0.07619305,-39.11000000,-9.64000000,0.07000000
561,0,0.16800000,-0.62200000,0.76500000,-0.14000000,-0.20000000,-0.02000000,0.02361505,0.05951952,-0.07729949,-39.11000000,-9.64000000,0.07000000
562,0,0.16700000,-0.61700000,0.76600000,-0.15000000,0.21000000,-0.00000000,0.02345757,0.05973999,-0.07729949,-39.11000000,-9.64000000,0.07000000
563,0,0.16400000,-0.62200000,0.76600000,0.06000000,-0.30000000,0.22000000,0.02351835,0.05943612,-0.07707665,-39.11000000,-9.64000000,0.07000000
564,0,0.16300000,-0.62200000,0.76600000,0.06000000,0.20000000,-0.41000000,0.02357819,0.05963560,-0.07748558,-39.11000000,-9.64000000,0.07000000
565,0,0.16600000,-0.62500000,0.76500000,0.08000000,-0.13000000,0.13000000,0.02365839,0.05950529,-0.07735527,-39.11000000,-9.64000000,0.07000000
566,0,0.16600000,-0.62500000,0.76900000,0.07000000,-0.11000000,-0.15000000,0.02372842,0.05939523,-0.07750535,-39.11000000,-9.64000000,0.07000000
567,0,0.16900000,-0.61700000,0.76300000,0.03000000,0.08000000,-0.06000000,0.02539422,0.06383736,-0.08083694,-39.11000000,-9.64000000,0.07000000
568,0,0.15800000,-0.62300000,0.76100000,0.05000000,0.13000000,0.02000000,0.02544663,0.06397363,-0.08081598,-39.11000000,-9.64000000,0.07000000
569,0,0.16600000,-0.62300000,0.76500000,-0.18000000,0.20000000,0.09000000,0.02525765,0.06418360,-0.08072149,-39.11000000,-9.63000000,0.07000000
570,0,0.17100000,-0.62200000,0.76500000,0.00000000,-0.08000000,-0.12000000,0.02525765,0.06410301,-0.08084238,-39.11000000,-9.64000000,0.07000000
571,0,0.17100000,-0.62000000,0.77000000,0.05000000,-0.17000000,-0.04000000,0.02530756,0.06393332,-0.08088231,-39.11000000,-9.64000000,0.07000000
572,0,0.16500000,-0.62100000,0.76400000,0.10000000,-0.23000000,-0.31000000,0.02540768,0.06370304,-0.08119268,-39.11000000,-9.64000000,0.07000000
573,0,0.16700000,-0.61800000,0.76700000,-0.04000000,-0.16000000,0.05000000,0.02317965,0.05479090,-0.07840764,-39.11000000,-9.64000000,0.07000000
574,0,0.16900000,-0.62100000,0.76400000,0.02000000,0.08000000,-0.09000000,0.02320065,0.05487491,-0.07850215,-39.11000000,-9.64000000,0.07000000
575,0,0.16700000,-0.62200000,0.76500000,0.11000000,0.00000000,-0.01000000,0.02331291,0.05487491,-0.07851235,-39.11000000,-9.64000000,0.07000000
576,0,0.16400000,-0.62000000,0.76000000,-0.11000000,-0.06000000,0.28000000,0.02320230,0.05481458,-0.07823081,-39.11000000,-9.64000000,0.07000000
577,0,0.16700000,-0.62500000,0.76300000,0.13000000,-0.01000000,0.12000000,0.02333181,0.05480462,-0.07811126,-39.11000000,-9.64000000,0.07000000
578,0,0.16300000,-0.62200000,0.76500000,-0.13000000,-0.04000000,0.06000000,0.02320140,0.05476449,-0.07805108,-39.11000000,-9.64000000,0.07000000
579,0,0.16400000,-0.62200000,0.76600000,0.17000000,0.09000000,-0.03000000,0.03275741,0.05982355,-0.07973743,-39.11000000,-9.64000000,0.07000000
580,0,0.16600000,-0.62200000,0.76300000,0.22000000,-0.14000000,0.09000000,0.03298995,0.05967557,-0.07964230,-39.11000000,-9.64000000,0.07000000
581,0,0.16500000,-0.62200000,0.76600000,0.16000000,-0.04000000,0.01000000,0.03315042,0.05963546,-0.07963227,-39.11000000,-9.64000000,0.07000000
582,0,0.16300000,-0.62200000,0.76500000,-0.11000000,0.02000000,0.20000000,0.03304081,0.05965539,-0.07943298,-39.11000000,-9.64000000,0.07000000
583,0,0.16700000,-0.62200000,0.76200000,0.09000000,0.02000000,0.09000000,0.03313529,0.05967638,-0.07933849,-39.11000000,-9.64000000,0.07000000
584,0,0.16400000,-0.62200000,0.76400000,-0.11000000,0.14000000,0.12000000,0.03302406,0.05981796,-0.07921714,-39.11000000,-9.64000000,0.07000000
585,0,0.17200000,-0.62100000,0.76500000,0.00000000,-0.09000000,0.14000000,0.03302406,0.05455226,-0.07102606,-39.11000000,-9.64000000,0.07000000
586,0,0.16900000,-0.62300000,0.76600000,0.06000000,-0.20000000,-0.28000000,0.03309229,0.05432483,-0.07134445,-39.11000000,-9.64000000,0.07000000
587,0,0.17600000,-0.62400000,0.76100000,0.07000000,-0.30000000,0.17000000,0.03316723,0.05400365,-0.07116245,-39.11000000,-9.64000000,0.07000000
588,0,0.16400000,-0.61700000,0.76300000,0.02000000,0.12000000,0.14000000,0.03318796,0.05412806,-0.07101730,-39.11000000,-9.63000000,0.07000000
589,0,0.16800000,-0.62400000,0.76700000,0.17000000,-0.03000000,0.01000000,0.03336226,0.05409730,-0.07100705,-39.11000000,-9.63000000,0.07000000
590,0,0.16600000,-0.62000000,0.76700000,-0.01000000,-0.09000000,-0.19000000,0.03335059,0.05399226,-0.07122881,-39.11000000,-9.64000000,0.07000000
591,0,0.16600000,-0.62400000,0.76500000,0.16000000,-0.07000000,-0.00000000,0.03356358,0.05389907,-0.07122881,-39.11000000,-9.64000000,0.07000000
592,0,0.16600000,-0.62300000,0.76000000,-0.12000000,-0.14000000,-0.11000000,0.02696668,0.04620269,-0.07727597,-39.11000000,-9.64000000,0.07000000
593,0,0.17100000,-0.62200000,0.76900000,0.11000000,-0.07000000,0.15000000,0.02708434,0.04612781,-0.07711552,-39.11000000,-9.64000000,0.07000000
594,0,0.16500000,-0.62000000,0.76300000,0.11000000,-0.06000000,-0.11000000,0.02719518,0.04606735,-0.07722637,-39.11000000,-9.64000000,0.07000000
595,0,0.16900000,-0.62200000,0.76500000,0.19000000,-0.15000000,-0.23000000,0.02738356,0.04591864,-0.07745440,-39.11000000,-9.64000000,0.07000000
596,0,0.17300000,-0.62000000,0.76000000,-0.12000000,0.24000000,-0.08000000,0.02726047,0.04616482,-0.07753646,-39.11000000,-9.64000000,0.07000000
597,0,0.16500000,-0.62400000,0.76300000,-0.07000000,-0.14000000,-0.04000000,0.02718843,0.04602075,-0.07757762,-39.11000000,-9.64000000,0.07000000
598,0,0.16600000,-0.62100000,0.76600000,-0.09000000,-0.01000000,-0.00000000,0.02213557,0.04545932,-0.07757762,-39.11000000,-9.64000000,0.07000000
599,0,0.17000000,-0.61500000,0.76700000,0.05000000,0.05000000,-0.04000000,0.02218889,0.04551265,-0.07762029,-39.11000000,-9.64000000,0.07000000
600,0,0.16900000,-0.62600000,0.76800000,0.33000000,-0.02000000,-0.22000000,0.02252229,0.04549244,-0.07784255,-39.11000000,-9.64000000,0.07000000
601,0,0.16400000,-0.62300000,0.76400000,0.23000000,0.03000000,0.01000000,0.02276227,0.04552374,-0.07783211,-39.11000000,-9.64000000,0.07000000
602,0,0.16700000,-0.61800000,0.76300000,-0.14000000,-0.29000000,0.04000000,0.02262090,0.04523090,-0.07779172,-39.11000000,-9.64000000,0.07000000
603,0,0.16600000,-0.62400000,0.76900000,0.04000000,0.13000000,0.06000000,0.02266160,0.04536317,-0.07773068,-39.11000000,-9.64000000,0.07000000
604,0,0.16900000,-0.61900000,0.76800000,-0.14000000,-0.11000000,-0.12000000,0.01489826,0.03926340,-0.08438497,-39.11000000,-9.64000000,0.07000000
605,0,0.16900000,-0.62700000,0.76600000,-0.18000000,-0.02000000,0.08000000,0.01471027,0.03924251,-0.08430142,-39.11000000,-9.64000000,0.07000000
606,0,0.16300000,-0.62300000,0.76800000,-0.03000000,-0.07000000,0.05000000,0.01468037,0.03917274,-0.08425159,-39.11000000,-9.64000000,0.07000000
607,0,0.16500000,-0.62500000,0.77100000,0.01000000,-0.22000000,0.07000000,0.01469030,0.03895420,-0.08418205,-39.11000000,-9.64000000,0.07000000
608,0,0.16800000,-0.62200000,0.76700000,0.07000000,0.08000000,-0.15000000,0.01476417,0.03903863,-0.08434035,-39.11000000,-9.64000000,0.07000000
609,0,0.16900000,-0.62300000,0.76300000,-0.06000000,-0.08000000,0.07000000,0.01470334,0.03895752,-0.08426938,-39.11000000,-9.64000000,0.07000000
610,0,0.17200000,-0.62400000,0.76500000,-0.05000000,0.08000000,0.21000000,0.01190835,0.04342952,-0.07253039,-39.11000000,-9.64000000,0.07000000
611,0,0.16400000,-0.62700000,0.76400000,-0.15000000,0.08000000,0.06000000,0.01171911,0.04353044,-0.07245470,-39.11000000,-9.64000000,0.07000000
612,0,0.16400000,-0.61800000,0.76800000,0.02000000,-0.05000000,-0.06000000,0.01173956,0.04347931,-0.07251606,-39.11000000,-9.64000000,0.07000000
613,0,0.16900000,-0.62400000,0.76700000,0.01000000,-0.05000000,-0.01000000,0.01174958,0.04342922,-0.07252607,-39.11000000,-9.64000000,0.07000000
614,0,0.16700000,-0.62600000,0.76600000,0.13000000,-0.19000000,-0.17000000,0.01188039,0.04323804,-0.07269713,-39.11000000,-9.64000000,0.07000000
615,0,0.17000000,-0.62500000,0.76500000,-0.33000000,0.15000000,0.05000000,0.01154983,0.04338830,-0.07264705,-39.11000000,-9.64000000,0.07000000
616,0,0.16700000,-0.62400000,0.76300000,0.03000000,-0.22000000,0.18000000,0.01322430,0.03110882,-0.06260020,-39.11000000,-9.64000000,0.07000000
617,0,0.16400000,-0.62500000,0.76600000,0.15000000,0.01000000,-0.12000000,0.01338182,0.03111932,-0.06272622,-39.11000000,-9.64000000,0.07000000
618,0,0.16900000,-0.62100000,0.76500000,-0.24000000,0.08000000,0.06000000,0.01314170,0.03119936,-0.06266619,-39.11000000,-9.64000000,0.07000000
619,0,0.17000000,-0.62500000,0.76200000,-0.12000000,-0.01000000,-0.15000000,0.01302204,0.03118939,-0.06281576,-39.11000000,-9.64000000,0.07000000
620,0,0.17000000,-0.61800000,0.76500000,0.09000000,0.07000000,-0.04000000,0.01311416,0.03126104,-0.06285671,-39.11000000,-9.64000000,0.07000000
621,0,0.16900000,-0.61700000,0.76700000,0.09000000,-0.02000000,-0.04000000,0.01320577,0.03124069,-0.06289742,-39.11000000,-9.64000000,0.07000000
622,0,0.16400000,-0.62200000,0.76600000,0.02000000,-0.07000000,0.03000000,0.01431604,0.02735474,-0.06123202,-39.11000000,-9.64000000,0.07000000
623,0,0.16600000,-0.62700000,0.76200000,-0.24000000,0.07000000,0.01000000,0.01406488,0.02742800,-0.06122155,-39.11000000,-9.64000000,0.07000000
624,0,0.16700000,-0.62700000,0.76700000,0.15000000,-0.08000000,0.03000000,0.01422010,0.02734521,-0.06119051,-39.11000000,-9.64000000,0.07000000
625,0,0.16700000,-0.62300000,0.76700000,0.09000000,-0.06000000,-0.21000000,0.01431163,0.02728419,-0.06140407,-39.11000000,-9.64000000,0.07000000
626,0,0.16900000,-0.62000000,0.76800000,-0.19000000,-0.09000000,0.25000000,0.01411814,0.02719254,-0.06114947,-39.11000000,-9.64000000,0.07000000
627,0,0.16400000,-0.61900000,0.76300000,-0.24000000,-0.21000000,0.00000000,0.01387824,0.02698263,-0.06114947,-39.11000000,-9.64000000,0.07000000
628,0,0.16400000,-0.62400000,0.76800000,0.42000000,0.00000000,0.02000000,0.03756301,0.02698263,-0.06002163,-39.11000000,-9.64000000,0.07000000
629,0,0.16700000,-0.62200000,0.76500000,0.06000000,-0.10000000,0.11000000,0.03762611,0.02687746,-0.05990593,-39.11000000,-9.64000000,0.07000000
630,0,0.16800000,-0.61800000,0.76000000,0.19000000,-0.08000000,0.02000000,0.03781716,0.02679702,-0.05988582,-39.11000000,-9.64000000,0.07000000
631,0,0.16400000,-0.62000000,0.76700000,-0.05000000,0.03000000,-0.01000000,0.03776627,0.02682755,-0.05989600,-39.11000000,-9.64000000,0.07000000
632,0,0.17400000,-0.62000000,0.76400000,0.09000000,0.21000000,0.01000000,0.03785715,0.02703961,-0.05988590,-39.11000000,-9.64000000,0.07000000
633,0,0.16100000,-0.62100000,0.76400000,0.08000000,-0.19000000,0.11000000,0.03793736,0.02684911,-0.05977561,-39.11000000,-9.64000000,0.07000000
634,0,0.16400000,-0.61900000,0.76300000,0.17000000,-0.05000000,-0.11000000,0.04736707,0.02407566,-0.06587719,-39.11000000,-9.64000000,0.07000000
635,0,0.17100000,-0.62300000,0.76500000,-0.11000000,0.11000000,-0.06000000,0.04725230,0.02419044,-0.06593979,-39.10000000,-9.64000000,0.07000000
636,0,0.16600000,-0.62400000,0.76600000,-0.06000000,-0.16000000,-0.07000000,0.04719234,0.02403055,-0.06600975,-39.11000000,-9.64000000,0.07000000
637,0,0.17000000,-0.62400000,0.76800000,-0.35000000,0.08000000,0.01000000,0.04683273,0.02411274,-0.06599947,-39.11000000,-9.64000000,0.07000000
638,0,0.16700000,-0.61600000,0.76100000,-0.28000000,0.11000000,-0.02000000,0.04655072,0.02422353,-0.06601962,-39.11000000,-9.64000000,0.07000000
639,0,0.16400000,-0.62500000,0.76500000,0.13000000,-0.21000000,-0.10000000,0.04668172,0.02401193,-0.06612038,-39.11000000,-9.64000000,0.07000000
640,0,0.16700000,-0.62400000,0.76200000,0.23000000,0.04000000,-0.18000000,0.05943743,0.02623031,-0.07610311,-39.11000000,-9.64000000,0.07000000
641,0,0.16600000,-0.61700000,0.76700000,-0.11000000,0.07000000,-0.07000000,0.05932307,0.02630308,-0.07617588,-39.11000000,-9.64000000,0.07000000
642,0,0.16900000,-0.62000000,0.76600000,-0.13000000,0.10000000,0.09000000,0.05919319,0.02640299,-0.07608597,-39.11000000,-9.64000000,0.07000000
643,0,0.16900000,-0.61800000,0.76500000,0.17000000,0.17000000,0.01000000,0.05936575,0.02657555,-0.07607582,-39.11000000,-9.64000000,0.07000000
644,0,0.16400000,-0.62000000,0.76400000,-0.17000000,0.08000000,-0.18000000,0.05919586,0.02665549,-0.07625569,-39.10000000,-9.64000000,0.07000000
645,0,0.16500000,-0.62700000,0.76500000,-0.24000000,-0.02000000,-0.07000000,0.05894905,0.02663493,-0.07632768,-39.11000000,-9.64000000,0.07000000
646,0,0.16700000,-0.62300000,0.76700000,-0.01000000,0.05000000,0.05000000,0.05838404,0.02945994,-0.07350267,-39.11000000,-9.64000000,0.07000000
647,0,0.16400000,-0.61700000,0.76200000,-0.03000000,0.23000000,0.03000000,0.05835245,0.02970218,-0.07347107,-39.11000000,-9.64000000,0.07000000
648,0,0.16900000,-0.62500000,0.76200000,0.08000000,0.04000000,-0.01000000,0.05843400,0.02974295,-0.07348126,-39.11000000,-9.64000000,0.07000000
649,0,0.16800000,-0.62000000,0.76300000,-0.14000000,0.08000000,-0.11000000,0.05829115,0.02982457,-0.07359350,-39.11000000,-9.64000000,0.07000000
650,0,0.16400000,-0.61800000,0.77000000,0.11000000,-0.02000000,0.10000000,0.05840116,0.02980457,-0.07349349,-39.10000000,-9.64000000,0.07000000
651,0,0.16700000,-0.62000000,0.77200000,-0.16000000,-0.29000000,-0.23000000,0.05824096,0.02951422,-0.07372377,-39.10000000,-9.64000000,0.07000000
652,0,0.16600000,-0.62000000,0.76600000,-0.09000000,-0.08000000,0.14000000,0.05324756,0.02507564,-0.06595626,-39.11000000,-9.64000000,0.07000000
653,0,0.16600000,-0.61900000,0.76600000,-0.02000000,0.05000000,-0.02000000,0.05322630,0.02512879,-0.06597752,-39.10000000,-9.64000000,0.07000000
654,0,0.16800000,-0.62200000,0.76400000,0.38000000,-0.21000000,-0.13000000,0.05361021,0.02491663,-0.06610885,-39.10000000,-9.64000000,0.07000000
655,0,0.17000000,-0.62100000,0.76600000,-0.06000000,-0.10000000,0.21000000,0.05354940,0.02481529,-0.06589604,-39.10000000,-9.64000000,0.07000000
656,0,0.16500000,-0.61900000,0.76800000,0.25000000,0.09000000,-0.01000000,0.05379649,0.02490424,-0.06590593,-39.10000000,-9.64000000,0.07000000
657,0,0.16600000,-0.62300000,0.76500000,0.11000000,0.12000000,0.08000000,0.05390568,0.02502336,-0.06582652,-39.10000000,-9.64000000,0.07000000
658,0,0.16600000,-0.62300000,0.76700000,-0.16000000,0.31000000,-0.02000000,0.04502185,0.04223579,-0.06693700,-39.10000000,-9.64000000,0.07000000
659,0,0.17300000,-0.61800000,0.76700000,0.06000000,0.11000000,0.29000000,0.04508448,0.04235062,-0.06663427,-39.10000000,-9.64000000,0.07000000
660,0,0.16900000,-0.61900000,0.76800000,0.08000000,0.02000000,-0.11000000,0.04516553,0.04237088,-0.06674571,-39.10000000,-9.64000000,0.07000000
661,0,0.16700000,-0.62300000,0.76700000,0.00000000,0.01000000,-0.06000000,0.04516553,0.04238108,-0.06680687,-39.10000000,-9.64000000,0.07000000
662,0,0.16700000,-0.61900000,0.76400000,-0.04000000,0.03000000,0.12000000,0.04512562,0.04241101,-0.06668713,-39.10000000,-9.64000000,0.07000000
663,0,0.16400000,-0.62100000,0.76800000,0.04000000,0.10000000,0.05000000,0.04516559,0.04251094,-0.06663716,-39.10000000,-9.64000000,0.07000000
664,0,0.17200000,-0.62400000,0.76700000,0.09000000,-0.14000000,-0.00000000,0.05024486,0.03460985,-0.06663716,-39.10000000,-9.64000000,0.07000000
665,0,0.17000000,-0.62600000,0.76400000,-0.01000000,0.12000000,0.16000000,0.05023429,0.03473677,-0.06646792,-39.10000000,-9.64000000,0.07000000
666,0,0.16700000,-0.62700000,0.76000000,-0.01000000,-0.22000000,-0.05000000,0.05022423,0.03451561,-0.06651819,-39.10000000,-9.64000000,0.08000000
667,0,0.16400000,-0.62300000,0.76300000,0.16000000,0.26000000,0.04000000,0.05038256,0.03477289,-0.06647861,-39.10000000,-9.64000000,0.07000000
668,0,0.16900000,-0.62600000,0.76700000,0.01000000,0.14000000,-0.13000000,0.05039243,0.03491103,-0.06660687,-39.10000000,-9.64000000,0.07000000
669,0,0.16800000,-0.62300000,0.76500000,0.27000000,0.19000000,-0.04000000,0.05066450,0.03510248,-0.06664718,-39.10000000,-9.64000000,0.07000000
670,0,0.17100000,-0.61800000,0.76600000,-0.05000000,0.24000000,0.18000000,0.04788945,0.04842269,-0.05665703,-39.10000000,-9.64000000,0.07000000
671,0,0.16200000,-0.62300000,0.76200000,-0.17000000,-0.02000000,0.02000000,0.04771017,0.04840160,-0.05663593,-39.10000000,-9.64000000,0.07000000
672,0,0.16600000,-0.62400000,0.76400000,0.09000000,0.14000000,0.11000000,0.04780086,0.04854267,-0.05652509,-39.10000000,-9.64000000,0.07000000
673,0,0.16800000,-0.62500000,0.76600000,0.12000000,0.03000000,0.01000000,0.04792206,0.04857297,-0.05651499,-39.10000000,-9.64000000,0.07000000
674,0,0.16800000,-0.62000000,0.76400000,0.07000000,-0.31000000,0.04000000,0.04799228,0.04826200,-0.05647487,-39.11000000,-9.64000000,0.07000000
675,0,0.16200000,-0.62000000,0.76600000,0.04000000,-0.04000000,-0.10000000,0.04803326,0.04822102,-0.05657733,-39.11000000,-9.64000000,0.07000000
676,0,0.16700000,-0.61900000,0.76400000,-0.16000000,-0.04000000,-0.07000000,0.03915496,0.04600144,-0.06046158,-39.10000000,-9.64000000,0.07000000
677,0,0.17500000,-0.61900000,0.76400000,-0.08000000,0.06000000,-0.04000000,0.03907017,0.04606503,-0.06050398,-39.11000000,-9.64000000,0.07000000
678,0,0.16500000,-0.62100000,0.76500000,0.07000000,-0.11000000,0.10000000,0.03914074,0.04595414,-0.06040316,-39.11000000,-9.64000000,0.07000000
679,0,0.16900000,-0.62200000,0.76400000,-0.19000000,-0.11000000,0.01000000,0.03895254,0.04584518,-0.06039326,-39.11000000,-9.64000000,0.07000000
680,0,0.16600000,-0.61800000,0.76400000,-0.02000000,0.14000000,-0.09000000,0.03893271,0.04598405,-0.06048253,-39.11000000,-9.64000000,0.08000000
681,0,0.16800000,-0.62300000,0.76600000,0.05000000,0.21000000,0.05000000,0.03898295,0.04619506,-0.06043229,-39.11000000,-9.64000000,0.08000000
682,0,0.16800000,-0.62100000,0.77100000,0.10000000,-0.09000000,-0.22000000,0.04463107,0.04111175,-0.07285816,-39.11000000,-9.64000000,0.08000000
683,0,0.16800000,-0.62100000,0.76500000,0.15000000,-0.04000000,-0.06000000,0.04478758,0.04107001,-0.07292077,-39.11000000,-9.64000000,0.08000000
684,0,0.16900000,-0.61800000,0.76600000,-0.11000000,-0.22000000,-0.11000000,0.04467810,0.04085105,-0.07303025,-39.11000000,-9.64000000,0.08000000
685,0,0.17000000,-0.62400000,0.76800000,0.03000000,-0.17000000,0.05000000,0.04470795,0.04068194,-0.07298051,-39.11000000,-9.64000000,0.08000000
686,0,0.16800000,-0.61800000,0.76000000,0.21000000,-0.00000000,0.14000000,0.04492086,0.04068194,-0.07283857,-39.10000000,-9.64000000,0.08000000
687,0,0.17000000,-0.62000000,0.76500000,-0.13000000,-0.11000000,0.31000000,0.04478915,0.04057050,-0.07252449,-39.11000000,-9.64000000,0.08000000
688,0,0.17500000,-0.61900000,0.76400000,-0.02000000,-0.06000000,-0.14000000,0.04367815,0.03723751,-0.08030145,-39.10000000,-9.64000000,0.08000000
689,0,0.17000000,-0.62400000,0.76500000,-0.27000000,0.12000000,0.28000000,0.04339656,0.03736267,-0.08000943,-39.11000000,-9.64000000,0.08000000
690,0,0.16900000,-0.62000000,0.76300000,0.10000000,-0.01000000,0.11000000,0.04349587,0.03735273,-0.07990019,-39.10000000,-9.64000000,0.08000000
691,0,0.17100000,-0.61700000,0.76700000,-0.17000000,-0.00000000,-0.14000000,0.04332801,0.03735273,-0.08003842,-39.10000000,-9.64000000,0.08000000
692,0,0.16500000,-0.61700000,0.76700000,0.10000000,-0.11000000,0.00000000,0.04342957,0.03724103,-0.08003842,-39.10000000,-9.64000000,0.08000000
693,0,0.16500000,-0.62400000,0.76600000,-0.06000000,-0.13000000,0.30000000,0.04336891,0.03710960,-0.07973512,-39.10000000,-9.64000000,0.08000000
694,0,0.17100000,-0.62300000,0.76400000,0.15000000,-0.10000000,0.03000000,0.05171342,0.03154659,-0.07806622,-39.10000000,-9.64000000,0.08000000
695,0,0.16900000,-0.62000000,0.76500000,-0.16000000,-0.36000000,-0.10000000,0.05154246,0.03116195,-0.07817307,-39.10000000,-9.65000000,0.08000000
696,0,0.16900000,-0.62200000,0.76700000,-0.22000000,-0.13000000,-0.11000000,0.05131978,0.03103036,-0.07828441,-39.10000000,-9.65000000,0.08000000
697,0,0.16800000,-0.61900000,0.76600000,0.13000000,-0.14000000,0.12000000,0.05144923,0.03089096,-0.07816492,-39.10000000,-9.65000000,0.08000000
698,0,0.17000000,-0.62500000,0.76600000,-0.09000000,0.10000000,-0.00000000,0.05135783,0.03099251,-0.07816492,-39.10000000,-9.64000000,0.08000000
699,0,0.17300000,-0.62200000,0.76300000,0.19000000,-0.04000000,0.06000000,0.05154870,0.03095233,-0.07810464,-39.10000000,-9.64000000,0.08000000
700,0,0.16600000,-0.62000000,0.76300000,0.10000000,-0.10000000,-0.10000000,0.05717665,0.02532438,-0.08373260,-39.10000000,-9.64000000,0.08000000
701,0,0.16800000,-0.61700000,0.76500000,-0.02000000,0.02000000,0.06000000,0.05715496,0.02534607,-0.08366752,-39.10000000,-9.64000000,0.07000000
702,0,0.16300000,-0.62200000,0.76600000,0.07000000,0.15000000,0.04000000,0.05722589,0.02549808,-0.08362698,-39.10000000,-9.64000000,0.07000000
703,0,0.16600000,-0.62500000,0.76400000,0.06000000,0.03000000,-0.04000000,0.05728722,0.02552874,-0.08366787,-39.10000000,-9.64000000,0.07000000
704,0,0.17000000,-0.61700000,0.76700000,-0.01000000,0.02000000,0.12000000,0.05727720,0.02554879,-0.08354758,-39.10000000,-9.64000000,0.08000000
705,0,0.16200000,-0.62300000,0.76900000,0.11000000,0.27000000,-0.09000000,0.05738692,0.02581809,-0.08363735,-39.10000000,-9.64000000,0.08000000
706,0,0.16500000,-0.62300000,0.76600000,-0.12000000,-0.12000000,0.10000000,0.05036710,0.01879827,-0.07778750,-39.10000000,-9.64000000,0.08000000
707,0,0.17100000,-0.62000000,0.76800000,0.06000000,0.08000000,-0.21000000,0.05042985,0.01888194,-0.07800712,-39.10000000,-9.64000000,0.07000000
708,0,0.16700000,-0.62100000,0.76600000,-0.03000000,0.02000000,0.12000000,0.05040002,0.01890182,-0.07788783,-39.10000000,-9.64000000,0.07000000
709,0,0.16800000,-0.62000000,0.76800000,-0.22000000,0.19000000,-0.11000000,0.05016444,0.01910528,-0.07800562,-39.10000000,-9.64000000,0.07000000
710,0,0.16600000,-0.61800000,0.76400000,-0.04000000,0.03000000,-0.07000000,0.05012267,0.01913660,-0.07807871,-39.10000000,-9.64000000,0.07000000
711,0,0.16800000,-0.62300000,0.76700000,0.05000000,-0.10000000,-0.04000000,0.05017447,0.01903300,-0.07812015,-39.10000000,-9.64000000,0.07000000
712,0,0.16700000,-0.62400000,0.76600000,0.07000000,0.24000000,0.01000000,0.05024523,0.01927558,-0.07811005,-39.10000000,-9.64000000,0.07000000
713,0,0.16800000,-0.61800000,0.76400000,0.10000000,0.19000000,-0.09000000,0.05577352,0.02977934,-0.08308551,-39.10000000,-9.64000000,0.07000000
714,0,0.16900000,-0.61500000,0.76200000,0.21000000,-0.01000000,0.00000000,0.05599104,0.02976898,-0.08308551,-39.10000000,-9.64000000,0.07000000
715,0,0.16100000,-0.62000000,0.76700000,0.32000000,0.07000000,0.10000000,0.05631074,0.02983892,-0.08298560,-39.10000000,-9.64000000,0.07000000
716,0,0.16600000,-0.62400000,0.76400000,-0.03000000,0.21000000,0.07000000,0.05628073,0.03004902,-0.08291557,-39.10000000,-9.64000000,0.07000000
717,0,0.16800000,-0.62300000,0.76600000,-0.18000000,0.17000000,0.00000000,0.05610051,0.03021923,-0.08291557,-39.10000000,-9.64000000,0.07000000
718,0,0.16500000,-0.61900000,0.76800000,0.10000000,0.16000000,0.00000000,0.05620008,0.03037855,-0.08291557,-39.10000000,-9.64000000,0.07000000
719,0,0.16700000,-0.62400000,0.76500000,0.03000000,0.08000000,0.06000000,0.05789598,0.03490096,-0.07952376,-39.10000000,-9.64000000,0.07000000
720,0,0.16900000,-0.62300000,0.76700000,-0.26000000,-0.14000000,0.07000000,0.05762544,0.03475528,-0.07945092,-39.10000000,-9.64000000,0.07000000
721,0,0.16600000,-0.62300000,0.76400000,0.10000000,0.00000000,-0.02000000,0.05772718,0.03475528,-0.07947127,-39.10000000,-9.64000000,0.07000000
722,0,0.16400000,-0.62100000,0.76600000,-0.28000000,-0.16000000,0.15000000,0.05744437,0.03459367,-0.07931976,-39.10000000,-9.64000000,0.07000000
723,0,0.17100000,-0.61800000,0.76400000,-0.05000000,0.01000000,0.19000000,0.05739468,0.03460361,-0.07913093,-39.10000000,-9.64000000,0.07000000
724,0,0.16800000,-0.62300000,0.76600000,0.02000000,-0.05000000,-0.15000000,0.05741446,0.03455416,-0.07927929,-39.10000000,-9.64000000,0.07000000
725,0,0.16500000,-0.62100000,0.77000000,-0.22000000,0.01000000,0.01000000,0.04520039,0.03510934,-0.07872411,-39.10000000,-9.64000000,0.07000000
726,0,0.16800000,-0.61600000,0.76700000,-0.33000000,-0.15000000,-0.10000000,0.04485496,0.03495233,-0.07882879,-39.10000000,-9.64000000,0.07000000
727,0,0.16900000,-0.62400000,0.76100000,-0.06000000,0.13000000,0.05000000,0.04479371,0.03508503,-0.07877775,-39.10000000,-9.64000000,0.07000000
728,0,0.16900000,-0.61900000,0.76100000,0.18000000,0.08000000,0.04000000,0.04497569,0.03516591,-0.07873731,-39.10000000,-9.63000000,0.07000000
729,0,0.16800000,-0.62000000,0.76400000,0.01000000,-0.17000000,-0.21000000,0.04498572,0.03499542,-0.07894791,-39.09000000,-9.63000000,0.07000000
730,0,0.16100000,-0.62200000,0.76600000,-0.08000000,-0.01000000,0.01000000,0.04490551,0.03498539,-0.07893789,-39.09000000,-9.63000000,0.07000000
731,0,0.16800000,-0.61700000,0.76000000,0.16000000,0.07000000,0.05000000,0.05380205,0.03887762,-0.07615772,-39.09000000,-9.64000000,0.07000000
732,0,0.16700000,-0.62000000,0.76500000,-0.33000000,0.27000000,-0.06000000,0.05345937,0.03915800,-0.07622002,-39.09000000,-9.64000000,0.07000000
733,0,0.16600000,-0.62100000,0.76300000,-0.06000000,0.08000000,-0.21000000,0.05339648,0.03924185,-0.07644014,-39.09000000,-9.64000000,0.07000000
734,0,0.16700000,-0.62100000,0.76300000,-0.05000000,0.20000000,-0.19000000,0.05334620,0.03944295,-0.07663119,-39.09000000,-9.64000000,0.07000000
735,0,0.17100000,-0.62200000,0.76500000,0.05000000,0.07000000,-0.09000000,0.05339606,0.03951276,-0.07672094,-39.09000000,-9.64000000,0.07000000
736,0,0.16900000,-0.62200000,0.76600000,-0.13000000,-0.01000000,0.12000000,0.05326717,0.03950284,-0.07660196,-39.09000000,-9.63000000,0.07000000
737,0,0.16500000,-0.61500000,0.76300000,-0.05000000,-0.00000000,-0.24000000,0.05036027,0.03950284,-0.09055508,-39.09000000,-9.63000000,0.07000000
738,0,0.16600000,-0.62000000,0.76500000,-0.02000000,0.05000000,-0.17000000,0.05033853,0.03955721,-0.09073992,-39.09000000,-9.63000000,0.07000000
739,0,0.16700000,-0.62600000,0.76900000,-0.09000000,-0.04000000,-0.09000000,0.05001992,0.03941560,-0.09105853,-39.09000000,-9.63000000,0.07000000
740,0,0.16300000,-0.61900000,0.76800000,0.16000000,0.08000000,-0.28000000,0.05055342,0.03968235,-0.09199216,-39.09000000,-9.63000000,0.07000000
741,0,0.17000000,-0.62300000,0.76700000,0.15000000,0.06000000,-0.07000000,0.05104950,0.03988078,-0.09222367,-39.09000000,-9.63000000,0.07000000
742,0,0.16500000,-0.62200000,0.76800000,0.13000000,0.18000000,-0.15000000,0.05121397,0.04010851,-0.09241344,-39.09000000,-9.63000000,0.07000000
743,0,0.16500000,-0.62200000,0.76600000,-0.02000000,-0.02000000,0.10000000,0.05024597,0.03914052,-0.08757346,-39.10000000,-9.63000000,0.07000000
744,0,0.16700000,-0.61500000,0.76500000,-0.18000000,-0.24000000,0.07000000,0.05002258,0.03884266,-0.08748659,-39.10000000,-9.63000000,0.07000000
745,0,0.16700000,-0.62100000,0.76600000,0.17000000,0.23000000,0.16000000,0.05063677,0.03967362,-0.08690853,-39.10000000,-9.63000000,0.07000000
746,0,0.17000000,-0.62700000,0.76300000,-0.07000000,-0.14000000,-0.06000000,0.05046291,0.03932590,-0.08705755,-39.10000000,-9.63000000,0.07000000
747,0,0.16700000,-0.62000000,0.76700000,-0.10000000,-0.10000000,0.06000000,0.05020657,0.03906956,-0.08690375,-39.09000000,-9.63000000,0.07000000
748,0,0.16400000,-0.62400000,0.76300000,0.00000000,-0.03000000,0.01000000,0.05020657,0.03902050,-0.08688740,-39.10000000,-9.63000000,0.07000000
749,0,0.16600000,-0.62100000,0.76400000,-0.23000000,0.02000000,-0.16000000,0.03935966,0.03996371,-0.09443307,-39.10000000,-9.63000000,0.07000000
750,0,0.16800000,-0.62200000,0.76700000,0.00000000,0.18000000,0.15000000,0.03935966,0.04027388,-0.09417460,-39.10000000,-9.63000000,0.07000000
751,0,0.17000000,-0.61600000,0.76700000,-0.19000000,-0.01000000,-0.03000000,0.03876762,0.04024272,-0.09426808,-39.10000000,-9.63000000,0.07000000
752,0,0.16500000,-0.62500000,0.76400000,-0.12000000,0.01000000,0.22000000,0.03855661,0.04026030,-0.09388123,-39.10000000,-9.63000000,0.07000000
753,0,0.17100000,-0.62600000,0.76600000,-0.07000000,-0.01000000,-0.19000000,0.03839847,0.04023771,-0.09431046,-39.10000000,-9.63000000,0.07000000
754,0,0.16800000,-0.61800000,0.76400000,-0.01000000,-0.03000000,-0.16000000,0.03838359,0.04019307,-0.09454855,-39.10000000,-9.63000000,0.07000000
755,0,0.17000000,-0.61900000,0.76900000,-0.12000000,0.05000000,0.17000000,0.03227240,0.04273940,-0.08589104,-39.10000000,-9.63000000,0.07000000
756,0,0.16600000,-0.62200000,0.76400000,-0.08000000,0.12000000,-0.29000000,0.03217409,0.04288687,-0.08624742,-39.10000000,-9.63000000,0.07000000
757,0,0.16300000,-0.61900000,0.76700000,-0.23000000,-0.11000000,0.00000000,0.03190082,0.04275617,-0.08624742,-39.10000000,-9.63000000,0.07000000
758,0,0.16300000,-0.61900000,0.77100000,-0.37000000,-0.04000000,-0.06000000,0.03146491,0.04270905,-0.08631811,-39.10000000,-9.63000000,0.07000000
759,0,0.17000000,-0.62500000,0.77000000,-0.24000000,0.11000000,0.10000000,0.03115549,0.04285086,-0.08618918,-39.10000000,-9.63000000,0.07000000
760,0,0.16600000,-0.62200000,0.76600000,-0.01000000,0.25000000,0.01000000,0.03114113,0.04320994,-0.08617482,-39.10000000,-9.63000000,0.07000000
761,0,0.17100000,-0.62400000,0.76200000,0.00000000,-0.10000000,0.37000000,0.03114113,0.03778739,-0.06611137,-39.10000000,-9.62000000,0.07000000
762,0,0.16300000,-0.62300000,0.76800000,0.06000000,0.03000000,-0.05000000,0.03120479,0.03781922,-0.06616442,-39.10000000,-9.62000000,0.07000000
763,0,0.16300000,-0.62200000,0.76300000,-0.06000000,0.14000000,-0.02000000,0.03114405,0.03796096,-0.06618467,-39.10000000,-9.62000000,0.07000000
764,0,0.16700000,-0.62100000,0.76500000,-0.03000000,-0.44000000,0.03000000,0.03111325,0.03750930,-0.06615388,-39.10000000,-9.62000000,0.07000000
765,0,0.16500000,-0.62000000,0.76400000,0.13000000,-0.00000000,0.05000000,0.03124493,0.03750930,-0.06610323,-39.10000000,-9.62000000,0.07000000
766,0,0.16900000,-0.62300000,0.76700000,0.16000000,0.01000000,0.02000000,0.03140715,0.03751944,-0.06608295,-39.10000000,-9.62000000,0.07000000
767,0,0.16900000,-0.62100000,0.76400000,-0.16000000,0.23000000,-0.16000000,0.02250588,0.05031502,-0.07498422,-39.10000000,-9.62000000,0.06000000
768,0,0.16600000,-0.62100000,0.76300000,-0.24000000,-0.22000000,-0.06000000,0.02225122,0.05008158,-0.07504789,-39.10000000,-9.62000000,0.06000000
769,0,0.16700000,-0.62500000,0.76000000,0.00000000,-0.01000000,-0.08000000,0.02225122,0.05007149,-0.07512863,-39.10000000,-9.62000000,0.06000000
770,0,0.16600000,-0.62400000,0.77000000,-0.02000000,-0.28000000,-0.24000000,0.02223113,0.04979015,-0.07536978,-39.10000000,-9.62000000,0.06000000
771,0,0.16600000,-0.62100000,0.76600000,-0.04000000,-0.10000000,0.06000000,0.02219102,0.04968988,-0.07530963,-39.10000000,-9.62000000,0.06000000
772,0,0.16900000,-0.62200000,0.76700000,0.05000000,-0.16000000,0.04000000,0.02224158,0.04952808,-0.07526918,-39.10000000,-9.62000000,0.06000000
773,0,0.16400000,-0.61800000,0.76400000,-0.05000000,0.12000000,0.19000000,0.01942557,0.05628652,-0.06456832,-39.10000000,-9.62000000,0.06000000
774,0,0.17300000,-0.62300000,0.76700000,-0.11000000,0.13000000,-0.06000000,0.01930911,0.05642415,-0.06463184,-39.10000000,-9.62000000,0.06000000
775,0,0.16600000,-0.61700000,0.76900000,0.16000000,0.16000000,-0.15000000,0.01947099,0.05658602,-0.06478360,-39.10000000,-9.62000000,0.06000000
776,0,0.16600000,-0.62400000,0.76300000,0.12000000,0.18000000,0.00000000,0.01959142,0.05676667,-0.06478360,-39.10000000,-9.62000000,0.06000000
777,0,0.16400000,-0.61800000,0.76400000,0.03000000,0.04000000,0.03000000,0.01962181,0.05680719,-0.06475321,-39.09000000,-9.63000000,0.06000000
778,0,0.16300000,-0.62400000,0.76100000,0.04000000,-0.14000000,-0.17000000,0.01966208,0.05666625,-0.06492435,-39.09000000,-9.62000000,0.06000000
779,0,0.16600000,-0.62000000,0.76500000,-0.13000000,0.13000000,-0.06000000,0.01245936,0.06386896,-0.06824868,-39.09000000,-9.62000000,0.06000000
780,0,0.16800000,-0.61700000,0.76300000,-0.20000000,0.04000000,0.21000000,0.01224920,0.06391099,-0.06802801,-39.09000000,-9.63000000,0.06000000
781,0,0.16700000,-0.62500000,0.76600000,0.11000000,0.05000000,-0.09000000,0.01235947,0.06396111,-0.06811823,-39.09000000,-9.63000000,0.06000000
782,0,0.16800000,-0.61600000,0.76200000,0.10000000,-0.08000000,-0.07000000,0.01245940,0.06388117,-0.06818818,-39.09000000,-9.63000000,0.06000000
783,0,0.16800000,-0.62300000,0.76300000,-0.13000000,0.01000000,0.07000000,0.01232778,0.06389129,-0.06811731,-39.09000000,-9.63000000,0.06000000
784,0,0.16700000,-0.62300000,0.76600000,-0.41000000,0.00000000,-0.12000000,0.01191542,0.06389129,-0.06823800,-39.09000000,-9.63000000,0.06000000
785,0,0.16600000,-0.61900000,0.76500000,-0.07000000,0.08000000,-0.05000000,0.00801171,0.06835268,-0.07102637,-39.09000000,-9.63000000,0.06000000
786,0,0.16700000,-0.62300000,0.76600000,0.06000000,-0.01000000,0.19000000,0.00807530,0.06834209,-0.07082499,-39.09000000,-9.63000000,0.06000000
787,0,0.17200000,-0.62400000,0.76600000,-0.01000000,-0.05000000,0.13000000,0.00806522,0.06829170,-0.07069400,-39.09000000,-9.63000000,0.06000000
788,0,0.16700000,-0.62400000,0.76900000,0.23000000,0.18000000,-0.12000000,0.00829485,0.06847141,-0.07081380,-39.09000000,-9.63000000,0.06000000
789,0,0.16500000,-0.62300000,0.76600000,0.18000000,-0.01000000,0.16000000,0.00847588,0.06846135,-0.07065288,-39.09000000,-9.63000000,0.06000000
790,0,0.16500000,-0.62100000,0.76000000,0.04000000,-0.10000000,0.15000000,0.00851590,0.06836130,-0.07050280,-39.09000000,-9.63000000,0.06000000
791,0,0.16800000,-0.62300000,0.76700000,-0.12000000,0.04000000,-0.09000000,0.00176900,0.07061027,-0.07556298,-39.09000000,-9.63000000,0.06000000
792,0,0.16800000,-0.62600000,0.76600000,-0.02000000,0.10000000,0.04000000,0.00174783,0.07071609,-0.07552065,-39.09000000,-9.63000000,0.06000000
793,0,0.16800000,-0.61600000,0.76700000,0.10000000,0.11000000,0.07000000,0.00185034,0.07082885,-0.07544890,-39.09000000,-9.63000000,0.06000000
794,0,0.16700000,-0.62700000,0.76500000,-0.05000000,-0.04000000,-0.06000000,0.00179953,0.07078820,-0.07550987,-39.09000000,-9.63000000,0.06000000
795,0,0.16200000,-0.62500000,0.76500000,-0.06000000,0.07000000,-0.16000000,0.00173935,0.07085840,-0.07567034,-39.09000000,-9.63000000,0.06000000
796,0,0.16300000,-0.62400000,0.76500000,-0.04000000,0.02000000,0.40000000,0.00169923,0.07087846,-0.07526909,-39.09000000,-9.63000000,0.06000000
797,0,0.17200000,-0.62200000,0.76200000,0.15000000,0.08000000,-0.15000000,0.01002518,0.07531897,-0.08359504,-39.09000000,-9.63000000,0.06000000
798,0,0.16200000,-0.61900000,0.76800000,-0.04000000,-0.05000000,-0.11000000,0.00998170,0.07526461,-0.08371461,-39.09000000,-9.63000000,0.06000000
799,0,0.16900000,-0.62600000,0.76700000,-0.08000000,-0.29000000,0.06000000,0.00990057,0.07497053,-0.08365377,-39.09000000,-9.63000000,0.06000000
800,0,0.16700000,-0.62200000,0.76700000,-0.13000000,-0.07000000,-0.04000000,0.00976886,0.07489961,-0.08369429,-39.09000000,-9.63000000,0.06000000
801,0,0.16700000,-0.61800000,0.76300000,0.12000000,-0.05000000,0.10000000,0.00988878,0.07484964,-0.08359436,-39.09000000,-9.63000000,0.06000000
802,0,0.16700000,-0.61900000,0.76800000,-0.07000000,-0.07000000,-0.05000000,0.00981866,0.07477952,-0.08364444,-39.09000000,-9.63000000,0.06000000
803,0,0.16600000,-0.62600000,0.76800000,0.09000000,-0.13000000,-0.09000000,0.01482474,0.06754851,-0.08865053,-39.09000000,-9.63000000,0.06000000
804,0,0.16700000,-0.62300000,0.76700000,0.23000000,0.15000000,-0.07000000,0.01506429,0.06770474,-0.08872343,-39.09000000,-9.63000000,0.06000000
805,0,0.16700000,-0.62000000,0.76400000,0.04000000,-0.20000000,-0.06000000,0.01510442,0.06750411,-0.08878362,-39.09000000,-9.63000000,0.06000000
806,0,0.16600000,-0.62100000,0.76700000,0.12000000,0.01000000,0.04000000,0.01522528,0.06751418,-0.08874334,-39.09000000,-9.63000000,0.06000000
807,0,0.16700000,-0.62100000,0.76100000,0.18000000,-0.20000000,0.03000000,0.01540511,0.06731437,-0.08871336,-39.09000000,-9.63000000,0.06000000
808,0,0.16200000,-0.62300000,0.76500000,0.02000000,-0.18000000,-0.09000000,0.01542510,0.06713445,-0.08880332,-39.09000000,-9.63000000,0.06000000
809,0,0.16900000,-0.61900000,0.76500000,-0.12000000,-0.13000000,-0.07000000,0.00867147,0.05981802,-0.09274294,-39.09000000,-9.63000000,0.06000000
810,0,0.16600000,-0.62100000,0.76600000,0.17000000,0.08000000,-0.00000000,0.00885117,0.05990258,-0.09274294,-39.09000000,-9.63000000,0.06000000
811,0,0.16800000,-0.62200000,0.76800000,0.09000000,0.03000000,-0.05000000,0.00894256,0.05993305,-0.09279372,-39.09000000,-9.63000000,0.06000000
812,0,0.17000000,-0.62600000,0.76900000,0.28000000,0.02000000,0.11000000,0.00922224,0.05995302,-0.09268384,-39.08000000,-9.63000000,0.06000000
813,0,0.17200000,-0.62400000,0.76800000,0.06000000,0.01000000,0.07000000,0.00928271,0.05996310,-0.09261329,-39.09000000,-9.63000000,0.06000000
814,0,0.16700000,-0.61900000,0.76400000,0.02000000,0.04000000,0.02000000,0.00930267,0.06000302,-0.09259333,-39.09000000,-9.63000000,0.06000000
815,0,0.16200000,-0.62300000,0.76500000,-0.02000000,0.13000000,-0.22000000,0.00819327,0.06721410,-0.10479670,-39.09000000,-9.63000000,0.06000000
816,0,0.15900000,-0.62400000,0.77000000,0.07000000,0.21000000,-0.09000000,0.00826678,0.06743462,-0.10489121,-39.09000000,-9.63000000,0.06000000
817,0,0.16900000,-0.62000000,0.76500000,-0.03000000,-0.16000000,-0.12000000,0.00823632,0.06727217,-0.10501304,-39.09000000,-9.63000000,0.06000000
818,0,0.16700000,-0.62400000,0.76600000,0.04000000,0.04000000,0.07000000,0.00827642,0.06731227,-0.10494288,-39.09000000,-9.63000000,0.06000000
819,0,0.17000000,-0.62100000,0.76400000,0.06000000,0.08000000,-0.22000000,0.00833646,0.06739233,-0.10516304,-39.09000000,-9.63000000,0.06000000
820,0,0.16600000,-0.62100000,0.76600000,0.01000000,0.14000000,-0.16000000,0.00834647,0.06753247,-0.10532320,-39.09000000,-9.63000000,0.06000000
821,0,0.16600000,-0.62000000,0.76500000,-0.00000000,0.07000000,-0.07000000,0.00834647,0.07148710,-0.10927783,-39.09000000,-9.62000000,0.06000000
822,0,0.16700000,-0.62000000,0.76700000,0.17000000,-0.17000000,0.10000000,0.00852823,0.07130534,-0.10917092,-39.09000000,-9.62000000,0.06000000
823,0,0.16800000,-0.62300000,0.76100000,-0.04000000,-0.10000000,-0.06000000,0.00848804,0.07120486,-0.10923120,-39.09000000,-9.62000000,0.06000000
824,0,0.16300000,-0.62100000,0.76700000,-0.19000000,0.06000000,-0.00000000,0.00829667,0.07126529,-0.10923120,-39.09000000,-9.62000000,0.06000000
825,0,0.16600000,-0.61900000,0.76300000,0.04000000,0.03000000,0.01000000,0.00833831,0.07129652,-0.10922080,-39.09000000,-9.62000000,0.06000000
826,0,0.16600000,-0.62300000,0.76400000,0.11000000,-0.18000000,-0.07000000,0.00845033,0.07111321,-0.10929208,-39.09000000,-9.62000000,0.06000000
827,0,0.16500000,-0.62000000,0.76400000,-0.02000000,-0.09000000,-0.15000000,0.00734175,0.06612459,-0.11760645,-39.09000000,-9.63000000,0.06000000
828,0,0.17000000,-0.62200000,0.76500000,-0.16000000,0.04000000,0.07000000,0.00716969,0.06616761,-0.11753117,-39.09000000,-9.62000000,0.06000000
829,0,0.16500000,-0.62500000,0.76600000,-0.08000000,-0.15000000,-0.17000000,0.00708881,0.06601596,-0.11770304,-39.09000000,-9.63000000,0.06000000
